[{
    "_id": {
        "$oid": "600195cdfe560f000476084a"
    },
    "data": [
        {
            "rt": 4950.889999978244,
            "responses": "{\"Q0\":\"test-prolific-id\"}",
            "trial_type": "survey-text",
            "trial_index": 0,
            "time_elapsed": 4975,
            "internal_node_id": "0.0-0.0",
            "subject": "ccvzockf8fjejvz",
            "condition": "conditionA",
            "firstlet_origin": [
                "C",
                "B",
                "W",
                "T",
                "P",
                "D"
            ],
            "secondlet_origin": [
                "C or R",
                "B or S",
                "W or F",
                "T or E",
                "P or A",
                "D or L"
            ],
            "subword_origin": [
                "chair<br>computer<br>curtain",
                "book<br>bouquet<br>bed",
                "window<br>wardrobe<br>wine rack",
                "table<br>towel<br>toilet",
                "painting<br>plant<br>printer",
                "display case<br>dresser<br>desk"
            ],
            "cueword_origin": [
                "a table",
                "a rug",
                "a lamp",
                "a sink",
                "a chair",
                "a telephone"
            ],
            "controlword_origin": [
                "table is brown",
                "rug is red",
                "lamp is silver",
                "sink is white",
                "chair is brown",
                "telephone is black"
            ]
        },
        {
            "view_history": "[{\"page_index\":0,\"viewing_time\":1265.7300001010299}]",
            "rt": 1266.1300001200289,
            "order": [
                4,
                5,
                2,
                0,
                1,
                3
            ],
            "trial_type": "instructions",
            "trial_index": 1,
            "time_elapsed": 6242,
            "internal_node_id": "0.0-1.0",
            "subject": "ccvzockf8fjejvz",
            "condition": "conditionA",
            "firstlet_origin": [
                "C",
                "B",
                "W",
                "T",
                "P",
                "D"
            ],
            "secondlet_origin": [
                "C or R",
                "B or S",
                "W or F",
                "T or E",
                "P or A",
                "D or L"
            ],
            "subword_origin": [
                "chair<br>computer<br>curtain",
                "book<br>bouquet<br>bed",
                "window<br>wardrobe<br>wine rack",
                "table<br>towel<br>toilet",
                "painting<br>plant<br>printer",
                "display case<br>dresser<br>desk"
            ],
            "cueword_origin": [
                "a table",
                "a rug",
                "a lamp",
                "a sink",
                "a chair",
                "a telephone"
            ],
            "controlword_origin": [
                "table is brown",
                "rug is red",
                "lamp is silver",
                "sink is white",
                "chair is brown",
                "telephone is black"
            ]
        },
        {
            "rt": 3245.7249998115003,
            "url": "informed_consent",
            "trial_type": "external-html",
            "trial_index": 2,
            "time_elapsed": 9661,
            "internal_node_id": "0.0-2.0",
            "subject": "ccvzockf8fjejvz",
            "condition": "conditionA",
            "firstlet_origin": [
                "C",
                "B",
                "W",
                "T",
                "P",
                "D"
            ],
            "secondlet_origin": [
                "C or R",
                "B or S",
                "W or F",
                "T or E",
                "P or A",
                "D or L"
            ],
            "subword_origin": [
                "chair<br>computer<br>curtain",
                "book<br>bouquet<br>bed",
                "window<br>wardrobe<br>wine rack",
                "table<br>towel<br>toilet",
                "painting<br>plant<br>printer",
                "display case<br>dresser<br>desk"
            ],
            "cueword_origin": [
                "a table",
                "a rug",
                "a lamp",
                "a sink",
                "a chair",
                "a telephone"
            ],
            "controlword_origin": [
                "table is brown",
                "rug is red",
                "lamp is silver",
                "sink is white",
                "chair is brown",
                "telephone is black"
            ]
        },
        {
            "view_history": "[{\"page_index\":0,\"viewing_time\":741.7750000022352}]",
            "rt": 742.0149999670684,
            "order": [
                4,
                5,
                2,
                0,
                1,
                3
            ],
            "trial_type": "instructions",
            "trial_index": 3,
            "time_elapsed": 10404,
            "internal_node_id": "0.0-3.0",
            "subject": "ccvzockf8fjejvz",
            "condition": "conditionA",
            "firstlet_origin": [
                "C",
                "B",
                "W",
                "T",
                "P",
                "D"
            ],
            "secondlet_origin": [
                "C or R",
                "B or S",
                "W or F",
                "T or E",
                "P or A",
                "D or L"
            ],
            "subword_origin": [
                "chair<br>computer<br>curtain",
                "book<br>bouquet<br>bed",
                "window<br>wardrobe<br>wine rack",
                "table<br>towel<br>toilet",
                "painting<br>plant<br>printer",
                "display case<br>dresser<br>desk"
            ],
            "cueword_origin": [
                "a table",
                "a rug",
                "a lamp",
                "a sink",
                "a chair",
                "a telephone"
            ],
            "controlword_origin": [
                "table is brown",
                "rug is red",
                "lamp is silver",
                "sink is white",
                "chair is brown",
                "telephone is black"
            ]
        },
        {
            "rt": null,
            "stimulus": "<p>This is an example trial</p><br><p>I see <b>a car</b> in this photo of a scene.</p>",
            "button_pressed": null,
            "trial_type": "html-button-response",
            "trial_index": 4,
            "time_elapsed": 13908,
            "internal_node_id": "0.0-4.0",
            "subject": "ccvzockf8fjejvz",
            "condition": "conditionA",
            "firstlet_origin": [
                "C",
                "B",
                "W",
                "T",
                "P",
                "D"
            ],
            "secondlet_origin": [
                "C or R",
                "B or S",
                "W or F",
                "T or E",
                "P or A",
                "D or L"
            ],
            "subword_origin": [
                "chair<br>computer<br>curtain",
                "book<br>bouquet<br>bed",
                "window<br>wardrobe<br>wine rack",
                "table<br>towel<br>toilet",
                "painting<br>plant<br>printer",
                "display case<br>dresser<br>desk"
            ],
            "cueword_origin": [
                "a table",
                "a rug",
                "a lamp",
                "a sink",
                "a chair",
                "a telephone"
            ],
            "controlword_origin": [
                "table is brown",
                "rug is red",
                "lamp is silver",
                "sink is white",
                "chair is brown",
                "telephone is black"
            ]
        },
        {
            "rt": 1234.5850002020597,
            "response": "79",
            "stimulus": "<p>This is an example trial</p><br><p>I see <b>a car</b> in this photo of a scene.</p><p>What is the probability that I also see:<br> any other object starting with G</p><br><p>Your answer is <span id=\"answer-display\"></span></p>",
            "trial_type": "html-slider-response",
            "trial_index": 5,
            "time_elapsed": 15144,
            "internal_node_id": "0.0-5.0",
            "subject": "ccvzockf8fjejvz",
            "condition": "conditionA",
            "firstlet_origin": [
                "C",
                "B",
                "W",
                "T",
                "P",
                "D"
            ],
            "secondlet_origin": [
                "C or R",
                "B or S",
                "W or F",
                "T or E",
                "P or A",
                "D or L"
            ],
            "subword_origin": [
                "chair<br>computer<br>curtain",
                "book<br>bouquet<br>bed",
                "window<br>wardrobe<br>wine rack",
                "table<br>towel<br>toilet",
                "painting<br>plant<br>printer",
                "display case<br>dresser<br>desk"
            ],
            "cueword_origin": [
                "a table",
                "a rug",
                "a lamp",
                "a sink",
                "a chair",
                "a telephone"
            ],
            "controlword_origin": [
                "table is brown",
                "rug is red",
                "lamp is silver",
                "sink is white",
                "chair is brown",
                "telephone is black"
            ]
        },
        {
            "rt": 772.0850000623614,
            "stimulus": "<h3>The experiment will now begin. Please press any key to continue.</h3>",
            "key_press": 32,
            "trial_type": "html-keyboard-response",
            "trial_index": 6,
            "time_elapsed": 15917,
            "internal_node_id": "0.0-6.0",
            "subject": "ccvzockf8fjejvz",
            "condition": "conditionA",
            "firstlet_origin": [
                "C",
                "B",
                "W",
                "T",
                "P",
                "D"
            ],
            "secondlet_origin": [
                "C or R",
                "B or S",
                "W or F",
                "T or E",
                "P or A",
                "D or L"
            ],
            "subword_origin": [
                "chair<br>computer<br>curtain",
                "book<br>bouquet<br>bed",
                "window<br>wardrobe<br>wine rack",
                "table<br>towel<br>toilet",
                "painting<br>plant<br>printer",
                "display case<br>dresser<br>desk"
            ],
            "cueword_origin": [
                "a table",
                "a rug",
                "a lamp",
                "a sink",
                "a chair",
                "a telephone"
            ],
            "controlword_origin": [
                "table is brown",
                "rug is red",
                "lamp is silver",
                "sink is white",
                "chair is brown",
                "telephone is black"
            ]
        },
        {
            "rt": null,
            "stimulus": "<p>I see <b>a chair</b> in this photo of a scene.</p><br>",
            "button_pressed": null,
            "trial_type": "html-button-response",
            "trial_index": 7,
            "time_elapsed": 19420,
            "internal_node_id": "0.0-7.0-0.0",
            "subject": "ccvzockf8fjejvz",
            "condition": "conditionA",
            "firstlet_origin": [
                "C",
                "B",
                "W",
                "T",
                "P",
                "D"
            ],
            "secondlet_origin": [
                "C or R",
                "B or S",
                "W or F",
                "T or E",
                "P or A",
                "D or L"
            ],
            "subword_origin": [
                "chair<br>computer<br>curtain",
                "book<br>bouquet<br>bed",
                "window<br>wardrobe<br>wine rack",
                "table<br>towel<br>toilet",
                "painting<br>plant<br>printer",
                "display case<br>dresser<br>desk"
            ],
            "cueword_origin": [
                "a table",
                "a rug",
                "a lamp",
                "a sink",
                "a chair",
                "a telephone"
            ],
            "controlword_origin": [
                "table is brown",
                "rug is red",
                "lamp is silver",
                "sink is white",
                "chair is brown",
                "telephone is black"
            ]
        },
        {
            "rt": 1188.594999955967,
            "response": "7",
            "stimulus": "<div><span id=\"time0\">00:59</span></div><p>I see <b>a chair</b> in this photo of a scene.</p><p>What is the probability that I also see:<br> any object starting with P</p><br><p>Your answer is <span id=\"answer-display\"></span></p>",
            "cueword": "a chair",
            "firstlet": "P",
            "trial_type": "html-slider-response",
            "trial_index": 8,
            "time_elapsed": 20610,
            "internal_node_id": "0.0-7.0-1.0",
            "subject": "ccvzockf8fjejvz",
            "condition": "conditionA",
            "firstlet_origin": [
                "C",
                "B",
                "W",
                "T",
                "P",
                "D"
            ],
            "secondlet_origin": [
                "C or R",
                "B or S",
                "W or F",
                "T or E",
                "P or A",
                "D or L"
            ],
            "subword_origin": [
                "chair<br>computer<br>curtain",
                "book<br>bouquet<br>bed",
                "window<br>wardrobe<br>wine rack",
                "table<br>towel<br>toilet",
                "painting<br>plant<br>printer",
                "display case<br>dresser<br>desk"
            ],
            "cueword_origin": [
                "a table",
                "a rug",
                "a lamp",
                "a sink",
                "a chair",
                "a telephone"
            ],
            "controlword_origin": [
                "table is brown",
                "rug is red",
                "lamp is silver",
                "sink is white",
                "chair is brown",
                "telephone is black"
            ]
        },
        {
            "rt": null,
            "stimulus": "<p>I see <b>a telephone</b> in this photo of a scene.</p><br>",
            "button_pressed": null,
            "trial_type": "html-button-response",
            "trial_index": 9,
            "time_elapsed": 24112,
            "internal_node_id": "0.0-7.0-2.0",
            "subject": "ccvzockf8fjejvz",
            "condition": "conditionA",
            "firstlet_origin": [
                "C",
                "B",
                "W",
                "T",
                "P",
                "D"
            ],
            "secondlet_origin": [
                "C or R",
                "B or S",
                "W or F",
                "T or E",
                "P or A",
                "D or L"
            ],
            "subword_origin": [
                "chair<br>computer<br>curtain",
                "book<br>bouquet<br>bed",
                "window<br>wardrobe<br>wine rack",
                "table<br>towel<br>toilet",
                "painting<br>plant<br>printer",
                "display case<br>dresser<br>desk"
            ],
            "cueword_origin": [
                "a table",
                "a rug",
                "a lamp",
                "a sink",
                "a chair",
                "a telephone"
            ],
            "controlword_origin": [
                "table is brown",
                "rug is red",
                "lamp is silver",
                "sink is white",
                "chair is brown",
                "telephone is black"
            ]
        },
        {
            "rt": 971.1249999236315,
            "response": "87",
            "stimulus": "<div><span id=\"time1\">00:59</span></div><p>I see <b>a telephone</b> in this photo of a scene.</p><p>What is the probability that I also see:<br> any object starting with D</p><br><p>Your answer is <span id=\"answer-display\"></span></p>",
            "cueword": "a telephone",
            "firstlet": "D",
            "trial_type": "html-slider-response",
            "trial_index": 10,
            "time_elapsed": 25084,
            "internal_node_id": "0.0-7.0-3.0",
            "subject": "ccvzockf8fjejvz",
            "condition": "conditionA",
            "firstlet_origin": [
                "C",
                "B",
                "W",
                "T",
                "P",
                "D"
            ],
            "secondlet_origin": [
                "C or R",
                "B or S",
                "W or F",
                "T or E",
                "P or A",
                "D or L"
            ],
            "subword_origin": [
                "chair<br>computer<br>curtain",
                "book<br>bouquet<br>bed",
                "window<br>wardrobe<br>wine rack",
                "table<br>towel<br>toilet",
                "painting<br>plant<br>printer",
                "display case<br>dresser<br>desk"
            ],
            "cueword_origin": [
                "a table",
                "a rug",
                "a lamp",
                "a sink",
                "a chair",
                "a telephone"
            ],
            "controlword_origin": [
                "table is brown",
                "rug is red",
                "lamp is silver",
                "sink is white",
                "chair is brown",
                "telephone is black"
            ]
        },
        {
            "rt": null,
            "stimulus": "<p>I see <b>a rug</b> in this photo of a scene.</p><br>",
            "button_pressed": null,
            "trial_type": "html-button-response",
            "trial_index": 11,
            "time_elapsed": 28585,
            "internal_node_id": "0.0-7.0-4.0",
            "subject": "ccvzockf8fjejvz",
            "condition": "conditionA",
            "firstlet_origin": [
                "C",
                "B",
                "W",
                "T",
                "P",
                "D"
            ],
            "secondlet_origin": [
                "C or R",
                "B or S",
                "W or F",
                "T or E",
                "P or A",
                "D or L"
            ],
            "subword_origin": [
                "chair<br>computer<br>curtain",
                "book<br>bouquet<br>bed",
                "window<br>wardrobe<br>wine rack",
                "table<br>towel<br>toilet",
                "painting<br>plant<br>printer",
                "display case<br>dresser<br>desk"
            ],
            "cueword_origin": [
                "a table",
                "a rug",
                "a lamp",
                "a sink",
                "a chair",
                "a telephone"
            ],
            "controlword_origin": [
                "table is brown",
                "rug is red",
                "lamp is silver",
                "sink is white",
                "chair is brown",
                "telephone is black"
            ]
        },
        {
            "rt": 1282.789999851957,
            "response": "14",
            "stimulus": "<div><span id=\"time2\">00:59</span></div><p>I see <b>a rug</b> in this photo of a scene.</p><p>What is the probability that I also see:<br> any object starting with B</p><br><p>Your answer is <span id=\"answer-display\"></span></p>",
            "cueword": "a rug",
            "firstlet": "B",
            "trial_type": "html-slider-response",
            "trial_index": 12,
            "time_elapsed": 29869,
            "internal_node_id": "0.0-7.0-5.0",
            "subject": "ccvzockf8fjejvz",
            "condition": "conditionA",
            "firstlet_origin": [
                "C",
                "B",
                "W",
                "T",
                "P",
                "D"
            ],
            "secondlet_origin": [
                "C or R",
                "B or S",
                "W or F",
                "T or E",
                "P or A",
                "D or L"
            ],
            "subword_origin": [
                "chair<br>computer<br>curtain",
                "book<br>bouquet<br>bed",
                "window<br>wardrobe<br>wine rack",
                "table<br>towel<br>toilet",
                "painting<br>plant<br>printer",
                "display case<br>dresser<br>desk"
            ],
            "cueword_origin": [
                "a table",
                "a rug",
                "a lamp",
                "a sink",
                "a chair",
                "a telephone"
            ],
            "controlword_origin": [
                "table is brown",
                "rug is red",
                "lamp is silver",
                "sink is white",
                "chair is brown",
                "telephone is black"
            ]
        },
        {
            "rt": null,
            "stimulus": "<p>I see <b>a table</b> in this photo of a scene.</p><br>",
            "button_pressed": null,
            "trial_type": "html-button-response",
            "trial_index": 13,
            "time_elapsed": 33370,
            "internal_node_id": "0.0-7.0-6.0",
            "subject": "ccvzockf8fjejvz",
            "condition": "conditionA",
            "firstlet_origin": [
                "C",
                "B",
                "W",
                "T",
                "P",
                "D"
            ],
            "secondlet_origin": [
                "C or R",
                "B or S",
                "W or F",
                "T or E",
                "P or A",
                "D or L"
            ],
            "subword_origin": [
                "chair<br>computer<br>curtain",
                "book<br>bouquet<br>bed",
                "window<br>wardrobe<br>wine rack",
                "table<br>towel<br>toilet",
                "painting<br>plant<br>printer",
                "display case<br>dresser<br>desk"
            ],
            "cueword_origin": [
                "a table",
                "a rug",
                "a lamp",
                "a sink",
                "a chair",
                "a telephone"
            ],
            "controlword_origin": [
                "table is brown",
                "rug is red",
                "lamp is silver",
                "sink is white",
                "chair is brown",
                "telephone is black"
            ]
        },
        {
            "rt": 1236.460000043735,
            "response": "89",
            "stimulus": "<div><span id=\"time3\">00:59</span></div><p>I see <b>a table</b> in this photo of a scene.</p><p>What is the probability that I also see:<br> any object starting with C</p><br><p>Your answer is <span id=\"answer-display\"></span></p>",
            "cueword": "a table",
            "firstlet": "C",
            "trial_type": "html-slider-response",
            "trial_index": 14,
            "time_elapsed": 34608,
            "internal_node_id": "0.0-7.0-7.0",
            "subject": "ccvzockf8fjejvz",
            "condition": "conditionA",
            "firstlet_origin": [
                "C",
                "B",
                "W",
                "T",
                "P",
                "D"
            ],
            "secondlet_origin": [
                "C or R",
                "B or S",
                "W or F",
                "T or E",
                "P or A",
                "D or L"
            ],
            "subword_origin": [
                "chair<br>computer<br>curtain",
                "book<br>bouquet<br>bed",
                "window<br>wardrobe<br>wine rack",
                "table<br>towel<br>toilet",
                "painting<br>plant<br>printer",
                "display case<br>dresser<br>desk"
            ],
            "cueword_origin": [
                "a table",
                "a rug",
                "a lamp",
                "a sink",
                "a chair",
                "a telephone"
            ],
            "controlword_origin": [
                "table is brown",
                "rug is red",
                "lamp is silver",
                "sink is white",
                "chair is brown",
                "telephone is black"
            ]
        },
        {
            "rt": null,
            "stimulus": "<p>I see <b>a lamp</b> in this photo of a scene.</p><br>",
            "button_pressed": null,
            "trial_type": "html-button-response",
            "trial_index": 15,
            "time_elapsed": 38112,
            "internal_node_id": "0.0-7.0-8.0",
            "subject": "ccvzockf8fjejvz",
            "condition": "conditionA",
            "firstlet_origin": [
                "C",
                "B",
                "W",
                "T",
                "P",
                "D"
            ],
            "secondlet_origin": [
                "C or R",
                "B or S",
                "W or F",
                "T or E",
                "P or A",
                "D or L"
            ],
            "subword_origin": [
                "chair<br>computer<br>curtain",
                "book<br>bouquet<br>bed",
                "window<br>wardrobe<br>wine rack",
                "table<br>towel<br>toilet",
                "painting<br>plant<br>printer",
                "display case<br>dresser<br>desk"
            ],
            "cueword_origin": [
                "a table",
                "a rug",
                "a lamp",
                "a sink",
                "a chair",
                "a telephone"
            ],
            "controlword_origin": [
                "table is brown",
                "rug is red",
                "lamp is silver",
                "sink is white",
                "chair is brown",
                "telephone is black"
            ]
        },
        {
            "rt": 1558.2500000018626,
            "response": "9",
            "stimulus": "<div><span id=\"time4\">00:59</span></div><p>I see <b>a lamp</b> in this photo of a scene.</p><p>What is the probability that I also see:<br> any object starting with W</p><br><p>Your answer is <span id=\"answer-display\"></span></p>",
            "cueword": "a lamp",
            "firstlet": "W",
            "trial_type": "html-slider-response",
            "trial_index": 16,
            "time_elapsed": 39671,
            "internal_node_id": "0.0-7.0-9.0",
            "subject": "ccvzockf8fjejvz",
            "condition": "conditionA",
            "firstlet_origin": [
                "C",
                "B",
                "W",
                "T",
                "P",
                "D"
            ],
            "secondlet_origin": [
                "C or R",
                "B or S",
                "W or F",
                "T or E",
                "P or A",
                "D or L"
            ],
            "subword_origin": [
                "chair<br>computer<br>curtain",
                "book<br>bouquet<br>bed",
                "window<br>wardrobe<br>wine rack",
                "table<br>towel<br>toilet",
                "painting<br>plant<br>printer",
                "display case<br>dresser<br>desk"
            ],
            "cueword_origin": [
                "a table",
                "a rug",
                "a lamp",
                "a sink",
                "a chair",
                "a telephone"
            ],
            "controlword_origin": [
                "table is brown",
                "rug is red",
                "lamp is silver",
                "sink is white",
                "chair is brown",
                "telephone is black"
            ]
        },
        {
            "rt": null,
            "stimulus": "<p>I see <b>a sink</b> in this photo of a scene.</p><br>",
            "button_pressed": null,
            "trial_type": "html-button-response",
            "trial_index": 17,
            "time_elapsed": 43172,
            "internal_node_id": "0.0-7.0-10.0",
            "subject": "ccvzockf8fjejvz",
            "condition": "conditionA",
            "firstlet_origin": [
                "C",
                "B",
                "W",
                "T",
                "P",
                "D"
            ],
            "secondlet_origin": [
                "C or R",
                "B or S",
                "W or F",
                "T or E",
                "P or A",
                "D or L"
            ],
            "subword_origin": [
                "chair<br>computer<br>curtain",
                "book<br>bouquet<br>bed",
                "window<br>wardrobe<br>wine rack",
                "table<br>towel<br>toilet",
                "painting<br>plant<br>printer",
                "display case<br>dresser<br>desk"
            ],
            "cueword_origin": [
                "a table",
                "a rug",
                "a lamp",
                "a sink",
                "a chair",
                "a telephone"
            ],
            "controlword_origin": [
                "table is brown",
                "rug is red",
                "lamp is silver",
                "sink is white",
                "chair is brown",
                "telephone is black"
            ]
        },
        {
            "rt": 1285.3050001431257,
            "response": "87",
            "stimulus": "<div><span id=\"time5\">00:59</span></div><p>I see <b>a sink</b> in this photo of a scene.</p><p>What is the probability that I also see:<br> any object starting with T</p><br><p>Your answer is <span id=\"answer-display\"></span></p>",
            "cueword": "a sink",
            "firstlet": "T",
            "trial_type": "html-slider-response",
            "trial_index": 18,
            "time_elapsed": 44459,
            "internal_node_id": "0.0-7.0-11.0",
            "subject": "ccvzockf8fjejvz",
            "condition": "conditionA",
            "firstlet_origin": [
                "C",
                "B",
                "W",
                "T",
                "P",
                "D"
            ],
            "secondlet_origin": [
                "C or R",
                "B or S",
                "W or F",
                "T or E",
                "P or A",
                "D or L"
            ],
            "subword_origin": [
                "chair<br>computer<br>curtain",
                "book<br>bouquet<br>bed",
                "window<br>wardrobe<br>wine rack",
                "table<br>towel<br>toilet",
                "painting<br>plant<br>printer",
                "display case<br>dresser<br>desk"
            ],
            "cueword_origin": [
                "a table",
                "a rug",
                "a lamp",
                "a sink",
                "a chair",
                "a telephone"
            ],
            "controlword_origin": [
                "table is brown",
                "rug is red",
                "lamp is silver",
                "sink is white",
                "chair is brown",
                "telephone is black"
            ]
        },
        {
            "view_history": "[{\"page_index\":0,\"viewing_time\":686.615000013262},{\"page_index\":1,\"viewing_time\":516.279999865219}]",
            "rt": 1203.1000000424683,
            "trial_type": "instructions",
            "trial_index": 19,
            "time_elapsed": 45663,
            "internal_node_id": "0.0-7.0-12.0",
            "subject": "ccvzockf8fjejvz",
            "condition": "conditionA",
            "firstlet_origin": [
                "C",
                "B",
                "W",
                "T",
                "P",
                "D"
            ],
            "secondlet_origin": [
                "C or R",
                "B or S",
                "W or F",
                "T or E",
                "P or A",
                "D or L"
            ],
            "subword_origin": [
                "chair<br>computer<br>curtain",
                "book<br>bouquet<br>bed",
                "window<br>wardrobe<br>wine rack",
                "table<br>towel<br>toilet",
                "painting<br>plant<br>printer",
                "display case<br>dresser<br>desk"
            ],
            "cueword_origin": [
                "a table",
                "a rug",
                "a lamp",
                "a sink",
                "a chair",
                "a telephone"
            ],
            "controlword_origin": [
                "table is brown",
                "rug is red",
                "lamp is silver",
                "sink is white",
                "chair is brown",
                "telephone is black"
            ]
        },
        {
            "rt": 761.5100000984967,
            "stimulus": "<img src = \"img/5.png\" width=\"200\" height=\"200\">",
            "key_press": 68,
            "correct_response_data": 68,
            "trial_type": "html-keyboard-response",
            "trial_index": 20,
            "time_elapsed": 46425,
            "internal_node_id": "0.0-7.0-13.0",
            "subject": "ccvzockf8fjejvz",
            "condition": "conditionA",
            "firstlet_origin": [
                "C",
                "B",
                "W",
                "T",
                "P",
                "D"
            ],
            "secondlet_origin": [
                "C or R",
                "B or S",
                "W or F",
                "T or E",
                "P or A",
                "D or L"
            ],
            "subword_origin": [
                "chair<br>computer<br>curtain",
                "book<br>bouquet<br>bed",
                "window<br>wardrobe<br>wine rack",
                "table<br>towel<br>toilet",
                "painting<br>plant<br>printer",
                "display case<br>dresser<br>desk"
            ],
            "cueword_origin": [
                "a table",
                "a rug",
                "a lamp",
                "a sink",
                "a chair",
                "a telephone"
            ],
            "controlword_origin": [
                "table is brown",
                "rug is red",
                "lamp is silver",
                "sink is white",
                "chair is brown",
                "telephone is black"
            ]
        },
        {
            "rt": null,
            "stimulus": "<p> Correct </p>",
            "button_pressed": null,
            "trial_type": "html-button-response",
            "trial_index": 21,
            "time_elapsed": 48427,
            "internal_node_id": "0.0-7.0-14.0",
            "subject": "ccvzockf8fjejvz",
            "condition": "conditionA",
            "firstlet_origin": [
                "C",
                "B",
                "W",
                "T",
                "P",
                "D"
            ],
            "secondlet_origin": [
                "C or R",
                "B or S",
                "W or F",
                "T or E",
                "P or A",
                "D or L"
            ],
            "subword_origin": [
                "chair<br>computer<br>curtain",
                "book<br>bouquet<br>bed",
                "window<br>wardrobe<br>wine rack",
                "table<br>towel<br>toilet",
                "painting<br>plant<br>printer",
                "display case<br>dresser<br>desk"
            ],
            "cueword_origin": [
                "a table",
                "a rug",
                "a lamp",
                "a sink",
                "a chair",
                "a telephone"
            ],
            "controlword_origin": [
                "table is brown",
                "rug is red",
                "lamp is silver",
                "sink is white",
                "chair is brown",
                "telephone is black"
            ]
        },
        {
            "rt": 446.9800000078976,
            "stimulus": "<img src = \"img/7.png\" width=\"200\" height=\"200\">",
            "key_press": 68,
            "correct_response_data": 68,
            "trial_type": "html-keyboard-response",
            "trial_index": 22,
            "time_elapsed": 48874,
            "internal_node_id": "0.0-7.0-15.0",
            "subject": "ccvzockf8fjejvz",
            "condition": "conditionA",
            "firstlet_origin": [
                "C",
                "B",
                "W",
                "T",
                "P",
                "D"
            ],
            "secondlet_origin": [
                "C or R",
                "B or S",
                "W or F",
                "T or E",
                "P or A",
                "D or L"
            ],
            "subword_origin": [
                "chair<br>computer<br>curtain",
                "book<br>bouquet<br>bed",
                "window<br>wardrobe<br>wine rack",
                "table<br>towel<br>toilet",
                "painting<br>plant<br>printer",
                "display case<br>dresser<br>desk"
            ],
            "cueword_origin": [
                "a table",
                "a rug",
                "a lamp",
                "a sink",
                "a chair",
                "a telephone"
            ],
            "controlword_origin": [
                "table is brown",
                "rug is red",
                "lamp is silver",
                "sink is white",
                "chair is brown",
                "telephone is black"
            ]
        },
        {
            "rt": null,
            "stimulus": "<p> Correct </p>",
            "button_pressed": null,
            "trial_type": "html-button-response",
            "trial_index": 23,
            "time_elapsed": 50876,
            "internal_node_id": "0.0-7.0-16.0",
            "subject": "ccvzockf8fjejvz",
            "condition": "conditionA",
            "firstlet_origin": [
                "C",
                "B",
                "W",
                "T",
                "P",
                "D"
            ],
            "secondlet_origin": [
                "C or R",
                "B or S",
                "W or F",
                "T or E",
                "P or A",
                "D or L"
            ],
            "subword_origin": [
                "chair<br>computer<br>curtain",
                "book<br>bouquet<br>bed",
                "window<br>wardrobe<br>wine rack",
                "table<br>towel<br>toilet",
                "painting<br>plant<br>printer",
                "display case<br>dresser<br>desk"
            ],
            "cueword_origin": [
                "a table",
                "a rug",
                "a lamp",
                "a sink",
                "a chair",
                "a telephone"
            ],
            "controlword_origin": [
                "table is brown",
                "rug is red",
                "lamp is silver",
                "sink is white",
                "chair is brown",
                "telephone is black"
            ]
        },
        {
            "rt": 24.239999940618873,
            "stimulus": "<img src = \"img/4.png\" width=\"200\" height=\"200\">",
            "key_press": 68,
            "correct_response_data": 68,
            "trial_type": "html-keyboard-response",
            "trial_index": 24,
            "time_elapsed": 50901,
            "internal_node_id": "0.0-7.0-17.0",
            "subject": "ccvzockf8fjejvz",
            "condition": "conditionA",
            "firstlet_origin": [
                "C",
                "B",
                "W",
                "T",
                "P",
                "D"
            ],
            "secondlet_origin": [
                "C or R",
                "B or S",
                "W or F",
                "T or E",
                "P or A",
                "D or L"
            ],
            "subword_origin": [
                "chair<br>computer<br>curtain",
                "book<br>bouquet<br>bed",
                "window<br>wardrobe<br>wine rack",
                "table<br>towel<br>toilet",
                "painting<br>plant<br>printer",
                "display case<br>dresser<br>desk"
            ],
            "cueword_origin": [
                "a table",
                "a rug",
                "a lamp",
                "a sink",
                "a chair",
                "a telephone"
            ],
            "controlword_origin": [
                "table is brown",
                "rug is red",
                "lamp is silver",
                "sink is white",
                "chair is brown",
                "telephone is black"
            ]
        },
        {
            "rt": null,
            "stimulus": "<p> Correct </p>",
            "button_pressed": null,
            "trial_type": "html-button-response",
            "trial_index": 25,
            "time_elapsed": 52902,
            "internal_node_id": "0.0-7.0-18.0",
            "subject": "ccvzockf8fjejvz",
            "condition": "conditionA",
            "firstlet_origin": [
                "C",
                "B",
                "W",
                "T",
                "P",
                "D"
            ],
            "secondlet_origin": [
                "C or R",
                "B or S",
                "W or F",
                "T or E",
                "P or A",
                "D or L"
            ],
            "subword_origin": [
                "chair<br>computer<br>curtain",
                "book<br>bouquet<br>bed",
                "window<br>wardrobe<br>wine rack",
                "table<br>towel<br>toilet",
                "painting<br>plant<br>printer",
                "display case<br>dresser<br>desk"
            ],
            "cueword_origin": [
                "a table",
                "a rug",
                "a lamp",
                "a sink",
                "a chair",
                "a telephone"
            ],
            "controlword_origin": [
                "table is brown",
                "rug is red",
                "lamp is silver",
                "sink is white",
                "chair is brown",
                "telephone is black"
            ]
        },
        {
            "rt": 209.62000009603798,
            "stimulus": "<img src = \"img/5.png\" width=\"200\" height=\"200\">",
            "key_press": 68,
            "correct_response_data": 83,
            "trial_type": "html-keyboard-response",
            "trial_index": 26,
            "time_elapsed": 53113,
            "internal_node_id": "0.0-7.0-19.0",
            "subject": "ccvzockf8fjejvz",
            "condition": "conditionA",
            "firstlet_origin": [
                "C",
                "B",
                "W",
                "T",
                "P",
                "D"
            ],
            "secondlet_origin": [
                "C or R",
                "B or S",
                "W or F",
                "T or E",
                "P or A",
                "D or L"
            ],
            "subword_origin": [
                "chair<br>computer<br>curtain",
                "book<br>bouquet<br>bed",
                "window<br>wardrobe<br>wine rack",
                "table<br>towel<br>toilet",
                "painting<br>plant<br>printer",
                "display case<br>dresser<br>desk"
            ],
            "cueword_origin": [
                "a table",
                "a rug",
                "a lamp",
                "a sink",
                "a chair",
                "a telephone"
            ],
            "controlword_origin": [
                "table is brown",
                "rug is red",
                "lamp is silver",
                "sink is white",
                "chair is brown",
                "telephone is black"
            ]
        },
        {
            "rt": null,
            "stimulus": "<p> Incorrect </p>",
            "button_pressed": null,
            "trial_type": "html-button-response",
            "trial_index": 27,
            "time_elapsed": 55115,
            "internal_node_id": "0.0-7.0-20.0",
            "subject": "ccvzockf8fjejvz",
            "condition": "conditionA",
            "firstlet_origin": [
                "C",
                "B",
                "W",
                "T",
                "P",
                "D"
            ],
            "secondlet_origin": [
                "C or R",
                "B or S",
                "W or F",
                "T or E",
                "P or A",
                "D or L"
            ],
            "subword_origin": [
                "chair<br>computer<br>curtain",
                "book<br>bouquet<br>bed",
                "window<br>wardrobe<br>wine rack",
                "table<br>towel<br>toilet",
                "painting<br>plant<br>printer",
                "display case<br>dresser<br>desk"
            ],
            "cueword_origin": [
                "a table",
                "a rug",
                "a lamp",
                "a sink",
                "a chair",
                "a telephone"
            ],
            "controlword_origin": [
                "table is brown",
                "rug is red",
                "lamp is silver",
                "sink is white",
                "chair is brown",
                "telephone is black"
            ]
        },
        {
            "rt": 699.5200000237674,
            "stimulus": "<img src = \"img/3.png\" width=\"200\" height=\"200\">",
            "key_press": 68,
            "correct_response_data": 68,
            "trial_type": "html-keyboard-response",
            "trial_index": 28,
            "time_elapsed": 55815,
            "internal_node_id": "0.0-7.0-21.0",
            "subject": "ccvzockf8fjejvz",
            "condition": "conditionA",
            "firstlet_origin": [
                "C",
                "B",
                "W",
                "T",
                "P",
                "D"
            ],
            "secondlet_origin": [
                "C or R",
                "B or S",
                "W or F",
                "T or E",
                "P or A",
                "D or L"
            ],
            "subword_origin": [
                "chair<br>computer<br>curtain",
                "book<br>bouquet<br>bed",
                "window<br>wardrobe<br>wine rack",
                "table<br>towel<br>toilet",
                "painting<br>plant<br>printer",
                "display case<br>dresser<br>desk"
            ],
            "cueword_origin": [
                "a table",
                "a rug",
                "a lamp",
                "a sink",
                "a chair",
                "a telephone"
            ],
            "controlword_origin": [
                "table is brown",
                "rug is red",
                "lamp is silver",
                "sink is white",
                "chair is brown",
                "telephone is black"
            ]
        },
        {
            "rt": null,
            "stimulus": "<p> Correct </p>",
            "button_pressed": null,
            "trial_type": "html-button-response",
            "trial_index": 29,
            "time_elapsed": 57819,
            "internal_node_id": "0.0-7.0-22.0",
            "subject": "ccvzockf8fjejvz",
            "condition": "conditionA",
            "firstlet_origin": [
                "C",
                "B",
                "W",
                "T",
                "P",
                "D"
            ],
            "secondlet_origin": [
                "C or R",
                "B or S",
                "W or F",
                "T or E",
                "P or A",
                "D or L"
            ],
            "subword_origin": [
                "chair<br>computer<br>curtain",
                "book<br>bouquet<br>bed",
                "window<br>wardrobe<br>wine rack",
                "table<br>towel<br>toilet",
                "painting<br>plant<br>printer",
                "display case<br>dresser<br>desk"
            ],
            "cueword_origin": [
                "a table",
                "a rug",
                "a lamp",
                "a sink",
                "a chair",
                "a telephone"
            ],
            "controlword_origin": [
                "table is brown",
                "rug is red",
                "lamp is silver",
                "sink is white",
                "chair is brown",
                "telephone is black"
            ]
        },
        {
            "rt": 673.0950002092868,
            "stimulus": "<img src = \"img/5.png\" width=\"200\" height=\"200\">",
            "key_press": 68,
            "correct_response_data": 83,
            "trial_type": "html-keyboard-response",
            "trial_index": 30,
            "time_elapsed": 58493,
            "internal_node_id": "0.0-7.0-23.0",
            "subject": "ccvzockf8fjejvz",
            "condition": "conditionA",
            "firstlet_origin": [
                "C",
                "B",
                "W",
                "T",
                "P",
                "D"
            ],
            "secondlet_origin": [
                "C or R",
                "B or S",
                "W or F",
                "T or E",
                "P or A",
                "D or L"
            ],
            "subword_origin": [
                "chair<br>computer<br>curtain",
                "book<br>bouquet<br>bed",
                "window<br>wardrobe<br>wine rack",
                "table<br>towel<br>toilet",
                "painting<br>plant<br>printer",
                "display case<br>dresser<br>desk"
            ],
            "cueword_origin": [
                "a table",
                "a rug",
                "a lamp",
                "a sink",
                "a chair",
                "a telephone"
            ],
            "controlword_origin": [
                "table is brown",
                "rug is red",
                "lamp is silver",
                "sink is white",
                "chair is brown",
                "telephone is black"
            ]
        },
        {
            "rt": null,
            "stimulus": "<p> Incorrect </p>",
            "button_pressed": null,
            "trial_type": "html-button-response",
            "trial_index": 31,
            "time_elapsed": 60499,
            "internal_node_id": "0.0-7.0-24.0",
            "subject": "ccvzockf8fjejvz",
            "condition": "conditionA",
            "firstlet_origin": [
                "C",
                "B",
                "W",
                "T",
                "P",
                "D"
            ],
            "secondlet_origin": [
                "C or R",
                "B or S",
                "W or F",
                "T or E",
                "P or A",
                "D or L"
            ],
            "subword_origin": [
                "chair<br>computer<br>curtain",
                "book<br>bouquet<br>bed",
                "window<br>wardrobe<br>wine rack",
                "table<br>towel<br>toilet",
                "painting<br>plant<br>printer",
                "display case<br>dresser<br>desk"
            ],
            "cueword_origin": [
                "a table",
                "a rug",
                "a lamp",
                "a sink",
                "a chair",
                "a telephone"
            ],
            "controlword_origin": [
                "table is brown",
                "rug is red",
                "lamp is silver",
                "sink is white",
                "chair is brown",
                "telephone is black"
            ]
        },
        {
            "rt": 292.41999983787537,
            "stimulus": "<img src = \"img/3.png\" width=\"200\" height=\"200\">",
            "key_press": 68,
            "correct_response_data": 83,
            "trial_type": "html-keyboard-response",
            "trial_index": 32,
            "time_elapsed": 60793,
            "internal_node_id": "0.0-7.0-25.0",
            "subject": "ccvzockf8fjejvz",
            "condition": "conditionA",
            "firstlet_origin": [
                "C",
                "B",
                "W",
                "T",
                "P",
                "D"
            ],
            "secondlet_origin": [
                "C or R",
                "B or S",
                "W or F",
                "T or E",
                "P or A",
                "D or L"
            ],
            "subword_origin": [
                "chair<br>computer<br>curtain",
                "book<br>bouquet<br>bed",
                "window<br>wardrobe<br>wine rack",
                "table<br>towel<br>toilet",
                "painting<br>plant<br>printer",
                "display case<br>dresser<br>desk"
            ],
            "cueword_origin": [
                "a table",
                "a rug",
                "a lamp",
                "a sink",
                "a chair",
                "a telephone"
            ],
            "controlword_origin": [
                "table is brown",
                "rug is red",
                "lamp is silver",
                "sink is white",
                "chair is brown",
                "telephone is black"
            ]
        },
        {
            "rt": null,
            "stimulus": "<p> Incorrect </p>",
            "button_pressed": null,
            "trial_type": "html-button-response",
            "trial_index": 33,
            "time_elapsed": 62796,
            "internal_node_id": "0.0-7.0-26.0",
            "subject": "ccvzockf8fjejvz",
            "condition": "conditionA",
            "firstlet_origin": [
                "C",
                "B",
                "W",
                "T",
                "P",
                "D"
            ],
            "secondlet_origin": [
                "C or R",
                "B or S",
                "W or F",
                "T or E",
                "P or A",
                "D or L"
            ],
            "subword_origin": [
                "chair<br>computer<br>curtain",
                "book<br>bouquet<br>bed",
                "window<br>wardrobe<br>wine rack",
                "table<br>towel<br>toilet",
                "painting<br>plant<br>printer",
                "display case<br>dresser<br>desk"
            ],
            "cueword_origin": [
                "a table",
                "a rug",
                "a lamp",
                "a sink",
                "a chair",
                "a telephone"
            ],
            "controlword_origin": [
                "table is brown",
                "rug is red",
                "lamp is silver",
                "sink is white",
                "chair is brown",
                "telephone is black"
            ]
        },
        {
            "view_history": "[{\"page_index\":0,\"viewing_time\":1204.219999955967}]",
            "rt": 1204.4150000438094,
            "trial_type": "instructions",
            "trial_index": 34,
            "time_elapsed": 64001,
            "internal_node_id": "0.0-7.0-27.0",
            "subject": "ccvzockf8fjejvz",
            "condition": "conditionA",
            "firstlet_origin": [
                "C",
                "B",
                "W",
                "T",
                "P",
                "D"
            ],
            "secondlet_origin": [
                "C or R",
                "B or S",
                "W or F",
                "T or E",
                "P or A",
                "D or L"
            ],
            "subword_origin": [
                "chair<br>computer<br>curtain",
                "book<br>bouquet<br>bed",
                "window<br>wardrobe<br>wine rack",
                "table<br>towel<br>toilet",
                "painting<br>plant<br>printer",
                "display case<br>dresser<br>desk"
            ],
            "cueword_origin": [
                "a table",
                "a rug",
                "a lamp",
                "a sink",
                "a chair",
                "a telephone"
            ],
            "controlword_origin": [
                "table is brown",
                "rug is red",
                "lamp is silver",
                "sink is white",
                "chair is brown",
                "telephone is black"
            ]
        },
        {
            "rt": null,
            "stimulus": "<p>I see <b>a lamp</b> in this photo of a scene.</p><br>",
            "button_pressed": null,
            "trial_type": "html-button-response",
            "trial_index": 35,
            "time_elapsed": 67504,
            "internal_node_id": "0.0-7.0-28.0",
            "subject": "ccvzockf8fjejvz",
            "condition": "conditionA",
            "firstlet_origin": [
                "C",
                "B",
                "W",
                "T",
                "P",
                "D"
            ],
            "secondlet_origin": [
                "C or R",
                "B or S",
                "W or F",
                "T or E",
                "P or A",
                "D or L"
            ],
            "subword_origin": [
                "chair<br>computer<br>curtain",
                "book<br>bouquet<br>bed",
                "window<br>wardrobe<br>wine rack",
                "table<br>towel<br>toilet",
                "painting<br>plant<br>printer",
                "display case<br>dresser<br>desk"
            ],
            "cueword_origin": [
                "a table",
                "a rug",
                "a lamp",
                "a sink",
                "a chair",
                "a telephone"
            ],
            "controlword_origin": [
                "table is brown",
                "rug is red",
                "lamp is silver",
                "sink is white",
                "chair is brown",
                "telephone is black"
            ]
        },
        {
            "rt": 1796.0800000000745,
            "response": "87",
            "stimulus": "<div><span id=\"time6\">00:59</span></div><p>I see <b>a lamp</b> in this photo of a scene.</p><p>What is the probability that I also see: <br> any other object starting with W or F<p>Your answer is <span id=\"answer-display\"></span></p>",
            "cueword": "a lamp",
            "secondlet": "W or F",
            "trial_type": "html-slider-response",
            "trial_index": 36,
            "time_elapsed": 69302,
            "internal_node_id": "0.0-7.0-29.0",
            "subject": "ccvzockf8fjejvz",
            "condition": "conditionA",
            "firstlet_origin": [
                "C",
                "B",
                "W",
                "T",
                "P",
                "D"
            ],
            "secondlet_origin": [
                "C or R",
                "B or S",
                "W or F",
                "T or E",
                "P or A",
                "D or L"
            ],
            "subword_origin": [
                "chair<br>computer<br>curtain",
                "book<br>bouquet<br>bed",
                "window<br>wardrobe<br>wine rack",
                "table<br>towel<br>toilet",
                "painting<br>plant<br>printer",
                "display case<br>dresser<br>desk"
            ],
            "cueword_origin": [
                "a table",
                "a rug",
                "a lamp",
                "a sink",
                "a chair",
                "a telephone"
            ],
            "controlword_origin": [
                "table is brown",
                "rug is red",
                "lamp is silver",
                "sink is white",
                "chair is brown",
                "telephone is black"
            ]
        },
        {
            "rt": null,
            "stimulus": "<p>I see <b>a sink</b> in this photo of a scene.</p><br>",
            "button_pressed": null,
            "trial_type": "html-button-response",
            "trial_index": 37,
            "time_elapsed": 72803,
            "internal_node_id": "0.0-7.0-30.0",
            "subject": "ccvzockf8fjejvz",
            "condition": "conditionA",
            "firstlet_origin": [
                "C",
                "B",
                "W",
                "T",
                "P",
                "D"
            ],
            "secondlet_origin": [
                "C or R",
                "B or S",
                "W or F",
                "T or E",
                "P or A",
                "D or L"
            ],
            "subword_origin": [
                "chair<br>computer<br>curtain",
                "book<br>bouquet<br>bed",
                "window<br>wardrobe<br>wine rack",
                "table<br>towel<br>toilet",
                "painting<br>plant<br>printer",
                "display case<br>dresser<br>desk"
            ],
            "cueword_origin": [
                "a table",
                "a rug",
                "a lamp",
                "a sink",
                "a chair",
                "a telephone"
            ],
            "controlword_origin": [
                "table is brown",
                "rug is red",
                "lamp is silver",
                "sink is white",
                "chair is brown",
                "telephone is black"
            ]
        },
        {
            "rt": 1487.4200001358986,
            "response": "17",
            "stimulus": "<div><span id=\"time7\">00:59</span></div><p>I see <b>a sink</b> in this photo of a scene.</p><p>What is the probability that I also see: <br> any other object starting with T or E<p>Your answer is <span id=\"answer-display\"></span></p>",
            "cueword": "a sink",
            "secondlet": "T or E",
            "trial_type": "html-slider-response",
            "trial_index": 38,
            "time_elapsed": 74292,
            "internal_node_id": "0.0-7.0-31.0",
            "subject": "ccvzockf8fjejvz",
            "condition": "conditionA",
            "firstlet_origin": [
                "C",
                "B",
                "W",
                "T",
                "P",
                "D"
            ],
            "secondlet_origin": [
                "C or R",
                "B or S",
                "W or F",
                "T or E",
                "P or A",
                "D or L"
            ],
            "subword_origin": [
                "chair<br>computer<br>curtain",
                "book<br>bouquet<br>bed",
                "window<br>wardrobe<br>wine rack",
                "table<br>towel<br>toilet",
                "painting<br>plant<br>printer",
                "display case<br>dresser<br>desk"
            ],
            "cueword_origin": [
                "a table",
                "a rug",
                "a lamp",
                "a sink",
                "a chair",
                "a telephone"
            ],
            "controlword_origin": [
                "table is brown",
                "rug is red",
                "lamp is silver",
                "sink is white",
                "chair is brown",
                "telephone is black"
            ]
        },
        {
            "rt": null,
            "stimulus": "<p>I see <b>a rug</b> in this photo of a scene.</p><br>",
            "button_pressed": null,
            "trial_type": "html-button-response",
            "trial_index": 39,
            "time_elapsed": 77796,
            "internal_node_id": "0.0-7.0-32.0",
            "subject": "ccvzockf8fjejvz",
            "condition": "conditionA",
            "firstlet_origin": [
                "C",
                "B",
                "W",
                "T",
                "P",
                "D"
            ],
            "secondlet_origin": [
                "C or R",
                "B or S",
                "W or F",
                "T or E",
                "P or A",
                "D or L"
            ],
            "subword_origin": [
                "chair<br>computer<br>curtain",
                "book<br>bouquet<br>bed",
                "window<br>wardrobe<br>wine rack",
                "table<br>towel<br>toilet",
                "painting<br>plant<br>printer",
                "display case<br>dresser<br>desk"
            ],
            "cueword_origin": [
                "a table",
                "a rug",
                "a lamp",
                "a sink",
                "a chair",
                "a telephone"
            ],
            "controlword_origin": [
                "table is brown",
                "rug is red",
                "lamp is silver",
                "sink is white",
                "chair is brown",
                "telephone is black"
            ]
        },
        {
            "rt": 2192.155000055209,
            "response": "96",
            "stimulus": "<div><span id=\"time8\">00:59</span></div><p>I see <b>a rug</b> in this photo of a scene.</p><p>What is the probability that I also see: <br> any other object starting with B or S<p>Your answer is <span id=\"answer-display\"></span></p>",
            "cueword": "a rug",
            "secondlet": "B or S",
            "trial_type": "html-slider-response",
            "trial_index": 40,
            "time_elapsed": 79989,
            "internal_node_id": "0.0-7.0-33.0",
            "subject": "ccvzockf8fjejvz",
            "condition": "conditionA",
            "firstlet_origin": [
                "C",
                "B",
                "W",
                "T",
                "P",
                "D"
            ],
            "secondlet_origin": [
                "C or R",
                "B or S",
                "W or F",
                "T or E",
                "P or A",
                "D or L"
            ],
            "subword_origin": [
                "chair<br>computer<br>curtain",
                "book<br>bouquet<br>bed",
                "window<br>wardrobe<br>wine rack",
                "table<br>towel<br>toilet",
                "painting<br>plant<br>printer",
                "display case<br>dresser<br>desk"
            ],
            "cueword_origin": [
                "a table",
                "a rug",
                "a lamp",
                "a sink",
                "a chair",
                "a telephone"
            ],
            "controlword_origin": [
                "table is brown",
                "rug is red",
                "lamp is silver",
                "sink is white",
                "chair is brown",
                "telephone is black"
            ]
        },
        {
            "rt": null,
            "stimulus": "<p>I see <b>a chair</b> in this photo of a scene.</p><br>",
            "button_pressed": null,
            "trial_type": "html-button-response",
            "trial_index": 41,
            "time_elapsed": 83491,
            "internal_node_id": "0.0-7.0-34.0",
            "subject": "ccvzockf8fjejvz",
            "condition": "conditionA",
            "firstlet_origin": [
                "C",
                "B",
                "W",
                "T",
                "P",
                "D"
            ],
            "secondlet_origin": [
                "C or R",
                "B or S",
                "W or F",
                "T or E",
                "P or A",
                "D or L"
            ],
            "subword_origin": [
                "chair<br>computer<br>curtain",
                "book<br>bouquet<br>bed",
                "window<br>wardrobe<br>wine rack",
                "table<br>towel<br>toilet",
                "painting<br>plant<br>printer",
                "display case<br>dresser<br>desk"
            ],
            "cueword_origin": [
                "a table",
                "a rug",
                "a lamp",
                "a sink",
                "a chair",
                "a telephone"
            ],
            "controlword_origin": [
                "table is brown",
                "rug is red",
                "lamp is silver",
                "sink is white",
                "chair is brown",
                "telephone is black"
            ]
        },
        {
            "rt": 1838.0899999756366,
            "response": "9",
            "stimulus": "<div><span id=\"time9\">00:59</span></div><p>I see <b>a chair</b> in this photo of a scene.</p><p>What is the probability that I also see: <br> any other object starting with P or A<p>Your answer is <span id=\"answer-display\"></span></p>",
            "cueword": "a chair",
            "secondlet": "P or A",
            "trial_type": "html-slider-response",
            "trial_index": 42,
            "time_elapsed": 85330,
            "internal_node_id": "0.0-7.0-35.0",
            "subject": "ccvzockf8fjejvz",
            "condition": "conditionA",
            "firstlet_origin": [
                "C",
                "B",
                "W",
                "T",
                "P",
                "D"
            ],
            "secondlet_origin": [
                "C or R",
                "B or S",
                "W or F",
                "T or E",
                "P or A",
                "D or L"
            ],
            "subword_origin": [
                "chair<br>computer<br>curtain",
                "book<br>bouquet<br>bed",
                "window<br>wardrobe<br>wine rack",
                "table<br>towel<br>toilet",
                "painting<br>plant<br>printer",
                "display case<br>dresser<br>desk"
            ],
            "cueword_origin": [
                "a table",
                "a rug",
                "a lamp",
                "a sink",
                "a chair",
                "a telephone"
            ],
            "controlword_origin": [
                "table is brown",
                "rug is red",
                "lamp is silver",
                "sink is white",
                "chair is brown",
                "telephone is black"
            ]
        },
        {
            "rt": null,
            "stimulus": "<p>I see <b>a telephone</b> in this photo of a scene.</p><br>",
            "button_pressed": null,
            "trial_type": "html-button-response",
            "trial_index": 43,
            "time_elapsed": 88832,
            "internal_node_id": "0.0-7.0-36.0",
            "subject": "ccvzockf8fjejvz",
            "condition": "conditionA",
            "firstlet_origin": [
                "C",
                "B",
                "W",
                "T",
                "P",
                "D"
            ],
            "secondlet_origin": [
                "C or R",
                "B or S",
                "W or F",
                "T or E",
                "P or A",
                "D or L"
            ],
            "subword_origin": [
                "chair<br>computer<br>curtain",
                "book<br>bouquet<br>bed",
                "window<br>wardrobe<br>wine rack",
                "table<br>towel<br>toilet",
                "painting<br>plant<br>printer",
                "display case<br>dresser<br>desk"
            ],
            "cueword_origin": [
                "a table",
                "a rug",
                "a lamp",
                "a sink",
                "a chair",
                "a telephone"
            ],
            "controlword_origin": [
                "table is brown",
                "rug is red",
                "lamp is silver",
                "sink is white",
                "chair is brown",
                "telephone is black"
            ]
        },
        {
            "rt": 1124.525000108406,
            "response": "93",
            "stimulus": "<div><span id=\"time10\">00:59</span></div><p>I see <b>a telephone</b> in this photo of a scene.</p><p>What is the probability that I also see: <br> any other object starting with D or L<p>Your answer is <span id=\"answer-display\"></span></p>",
            "cueword": "a telephone",
            "secondlet": "D or L",
            "trial_type": "html-slider-response",
            "trial_index": 44,
            "time_elapsed": 89958,
            "internal_node_id": "0.0-7.0-37.0",
            "subject": "ccvzockf8fjejvz",
            "condition": "conditionA",
            "firstlet_origin": [
                "C",
                "B",
                "W",
                "T",
                "P",
                "D"
            ],
            "secondlet_origin": [
                "C or R",
                "B or S",
                "W or F",
                "T or E",
                "P or A",
                "D or L"
            ],
            "subword_origin": [
                "chair<br>computer<br>curtain",
                "book<br>bouquet<br>bed",
                "window<br>wardrobe<br>wine rack",
                "table<br>towel<br>toilet",
                "painting<br>plant<br>printer",
                "display case<br>dresser<br>desk"
            ],
            "cueword_origin": [
                "a table",
                "a rug",
                "a lamp",
                "a sink",
                "a chair",
                "a telephone"
            ],
            "controlword_origin": [
                "table is brown",
                "rug is red",
                "lamp is silver",
                "sink is white",
                "chair is brown",
                "telephone is black"
            ]
        },
        {
            "rt": null,
            "stimulus": "<p>I see <b>a table</b> in this photo of a scene.</p><br>",
            "button_pressed": null,
            "trial_type": "html-button-response",
            "trial_index": 45,
            "time_elapsed": 93462,
            "internal_node_id": "0.0-7.0-38.0",
            "subject": "ccvzockf8fjejvz",
            "condition": "conditionA",
            "firstlet_origin": [
                "C",
                "B",
                "W",
                "T",
                "P",
                "D"
            ],
            "secondlet_origin": [
                "C or R",
                "B or S",
                "W or F",
                "T or E",
                "P or A",
                "D or L"
            ],
            "subword_origin": [
                "chair<br>computer<br>curtain",
                "book<br>bouquet<br>bed",
                "window<br>wardrobe<br>wine rack",
                "table<br>towel<br>toilet",
                "painting<br>plant<br>printer",
                "display case<br>dresser<br>desk"
            ],
            "cueword_origin": [
                "a table",
                "a rug",
                "a lamp",
                "a sink",
                "a chair",
                "a telephone"
            ],
            "controlword_origin": [
                "table is brown",
                "rug is red",
                "lamp is silver",
                "sink is white",
                "chair is brown",
                "telephone is black"
            ]
        },
        {
            "rt": 1334.660000167787,
            "response": "7",
            "stimulus": "<div><span id=\"time11\">00:59</span></div><p>I see <b>a table</b> in this photo of a scene.</p><p>What is the probability that I also see: <br> any other object starting with C or R<p>Your answer is <span id=\"answer-display\"></span></p>",
            "cueword": "a table",
            "secondlet": "C or R",
            "trial_type": "html-slider-response",
            "trial_index": 46,
            "time_elapsed": 94798,
            "internal_node_id": "0.0-7.0-39.0",
            "subject": "ccvzockf8fjejvz",
            "condition": "conditionA",
            "firstlet_origin": [
                "C",
                "B",
                "W",
                "T",
                "P",
                "D"
            ],
            "secondlet_origin": [
                "C or R",
                "B or S",
                "W or F",
                "T or E",
                "P or A",
                "D or L"
            ],
            "subword_origin": [
                "chair<br>computer<br>curtain",
                "book<br>bouquet<br>bed",
                "window<br>wardrobe<br>wine rack",
                "table<br>towel<br>toilet",
                "painting<br>plant<br>printer",
                "display case<br>dresser<br>desk"
            ],
            "cueword_origin": [
                "a table",
                "a rug",
                "a lamp",
                "a sink",
                "a chair",
                "a telephone"
            ],
            "controlword_origin": [
                "table is brown",
                "rug is red",
                "lamp is silver",
                "sink is white",
                "chair is brown",
                "telephone is black"
            ]
        },
        {
            "rt": 3982.8000001143664,
            "responses": "{\"Q0\":\"test\"}",
            "trial_type": "survey-text",
            "trial_index": 47,
            "time_elapsed": 98783,
            "internal_node_id": "0.0-8.0",
            "subject": "ccvzockf8fjejvz",
            "condition": "conditionA",
            "firstlet_origin": [
                "C",
                "B",
                "W",
                "T",
                "P",
                "D"
            ],
            "secondlet_origin": [
                "C or R",
                "B or S",
                "W or F",
                "T or E",
                "P or A",
                "D or L"
            ],
            "subword_origin": [
                "chair<br>computer<br>curtain",
                "book<br>bouquet<br>bed",
                "window<br>wardrobe<br>wine rack",
                "table<br>towel<br>toilet",
                "painting<br>plant<br>printer",
                "display case<br>dresser<br>desk"
            ],
            "cueword_origin": [
                "a table",
                "a rug",
                "a lamp",
                "a sink",
                "a chair",
                "a telephone"
            ],
            "controlword_origin": [
                "table is brown",
                "rug is red",
                "lamp is silver",
                "sink is white",
                "chair is brown",
                "telephone is black"
            ]
        }
    ],
    "__v": 0
}]