{"_id":{"$oid":"5ff8d8f017794e0004b2565b"},"data":[{"rt":7013,"responses":"{\"Q0\":\"5de7fe70521f9577ac587166\"}","trial_type":"survey-text","trial_index":0,"time_elapsed":7028,"internal_node_id":"0.0-0.0","subject":"rwfyea53ac2olh2","condition":"conditionA","firstlet":["P","C","B","W","T","D"],"secondlet":["P or A","C or R","B or S","W or F","T or E","D or L"],"cueword":["a chair","a table","a rug","a lamp","a sink","a telephone"],"controlword":["chair is brown","table is brown","rug is red","lamp is silver","sink is white","telephone is black"],"subword":["painting<br>plant<br>printer","chair<br>computer<br>curtain","book<br>bouquet<br>bed","window<br>wardrobe<br>wine rack","table<br>towel<br>toilet","display case<br>dresser<br>desk"]},{"view_history":"[{\"page_index\":0,\"viewing_time\":1287}]","rt":1288,"order":[3,1,2,0,4,5],"trial_type":"instructions","trial_index":1,"time_elapsed":8319,"internal_node_id":"0.0-1.0","subject":"rwfyea53ac2olh2","condition":"conditionA","firstlet":["P","C","B","W","T","D"],"secondlet":["P or A","C or R","B or S","W or F","T or E","D or L"],"cueword":["a chair","a table","a rug","a lamp","a sink","a telephone"],"controlword":["chair is brown","table is brown","rug is red","lamp is silver","sink is white","telephone is black"],"subword":["painting<br>plant<br>printer","chair<br>computer<br>curtain","book<br>bouquet<br>bed","window<br>wardrobe<br>wine rack","table<br>towel<br>toilet","display case<br>dresser<br>desk"]},{"rt":12085,"url":"informed_consent","trial_type":"external-html","trial_index":2,"time_elapsed":20528,"internal_node_id":"0.0-2.0","subject":"rwfyea53ac2olh2","condition":"conditionA","firstlet":["P","C","B","W","T","D"],"secondlet":["P or A","C or R","B or S","W or F","T or E","D or L"],"cueword":["a chair","a table","a rug","a lamp","a sink","a telephone"],"controlword":["chair is brown","table is brown","rug is red","lamp is silver","sink is white","telephone is black"],"subword":["painting<br>plant<br>printer","chair<br>computer<br>curtain","book<br>bouquet<br>bed","window<br>wardrobe<br>wine rack","table<br>towel<br>toilet","display case<br>dresser<br>desk"]},{"view_history":"[{\"page_index\":0,\"viewing_time\":1523}]","rt":1523,"order":[3,1,2,0,4,5],"trial_type":"instructions","trial_index":3,"time_elapsed":22054,"internal_node_id":"0.0-3.0","subject":"rwfyea53ac2olh2","condition":"conditionA","firstlet":["P","C","B","W","T","D"],"secondlet":["P or A","C or R","B or S","W or F","T or E","D or L"],"cueword":["a chair","a table","a rug","a lamp","a sink","a telephone"],"controlword":["chair is brown","table is brown","rug is red","lamp is silver","sink is white","telephone is black"],"subword":["painting<br>plant<br>printer","chair<br>computer<br>curtain","book<br>bouquet<br>bed","window<br>wardrobe<br>wine rack","table<br>towel<br>toilet","display case<br>dresser<br>desk"]},{"rt":null,"stimulus":"<p>This is an example trial</p><br><p>I see <b>a car</b> in this photo of a scene.</p>","button_pressed":null,"trial_type":"html-button-response","trial_index":4,"time_elapsed":25557,"internal_node_id":"0.0-4.0","subject":"rwfyea53ac2olh2","condition":"conditionA","firstlet":["P","C","B","W","T","D"],"secondlet":["P or A","C or R","B or S","W or F","T or E","D or L"],"cueword":["a chair","a table","a rug","a lamp","a sink","a telephone"],"controlword":["chair is brown","table is brown","rug is red","lamp is silver","sink is white","telephone is black"],"subword":["painting<br>plant<br>printer","chair<br>computer<br>curtain","book<br>bouquet<br>bed","window<br>wardrobe<br>wine rack","table<br>towel<br>toilet","display case<br>dresser<br>desk"]},{"rt":7933,"response":"17","stimulus":"<p>This is an example trial</p><br><p>I see <b>a car</b> in this photo of a scene.</p><p>What is the probability that I also see:<br> any other object starting with G</p><br><p>Your answer is <span id=\"answer-display\"></span></p>","trial_type":"html-slider-response","trial_index":5,"time_elapsed":33496,"internal_node_id":"0.0-5.0","subject":"rwfyea53ac2olh2","condition":"conditionA","firstlet":["P","C","B","W","T","D"],"secondlet":["P or A","C or R","B or S","W or F","T or E","D or L"],"cueword":["a chair","a table","a rug","a lamp","a sink","a telephone"],"controlword":["chair is brown","table is brown","rug is red","lamp is silver","sink is white","telephone is black"],"subword":["painting<br>plant<br>printer","chair<br>computer<br>curtain","book<br>bouquet<br>bed","window<br>wardrobe<br>wine rack","table<br>towel<br>toilet","display case<br>dresser<br>desk"]},{"rt":3702,"stimulus":"<h3>The experiment will now begin. Please press any key to continue.</h3>","key_press":32,"trial_type":"html-keyboard-response","trial_index":6,"time_elapsed":37200,"internal_node_id":"0.0-6.0","subject":"rwfyea53ac2olh2","condition":"conditionA","firstlet":["P","C","B","W","T","D"],"secondlet":["P or A","C or R","B or S","W or F","T or E","D or L"],"cueword":["a chair","a table","a rug","a lamp","a sink","a telephone"],"controlword":["chair is brown","table is brown","rug is red","lamp is silver","sink is white","telephone is black"],"subword":["painting<br>plant<br>printer","chair<br>computer<br>curtain","book<br>bouquet<br>bed","window<br>wardrobe<br>wine rack","table<br>towel<br>toilet","display case<br>dresser<br>desk"]},{"rt":null,"stimulus":"<p>I see <b>a chair</b> in this photo of a scene.</p><br>","button_pressed":null,"trial_type":"html-button-response","trial_index":7,"time_elapsed":40701,"internal_node_id":"0.0-7.0-0.0","subject":"rwfyea53ac2olh2","condition":"conditionA","firstlet":["P","C","B","W","T","D"],"secondlet":["P or A","C or R","B or S","W or F","T or E","D or L"],"cueword":["a chair","a table","a rug","a lamp","a sink","a telephone"],"controlword":["chair is brown","table is brown","rug is red","lamp is silver","sink is white","telephone is black"],"subword":["painting<br>plant<br>printer","chair<br>computer<br>curtain","book<br>bouquet<br>bed","window<br>wardrobe<br>wine rack","table<br>towel<br>toilet","display case<br>dresser<br>desk"]},{"rt":2489,"response":"30","stimulus":"<div><span id=\"time0\">00:59</span></div><p>I see <b>a chair</b> in this photo of a scene.</p><p>What is the probability that I also see:<br> any object starting with P</p><br><p>Your answer is <span id=\"answer-display\"></span></p>","cueword":["a chair","a table","a rug","a lamp","a sink","a telephone"],"firstlet":["P","C","B","W","T","D"],"trial_type":"html-slider-response","trial_index":8,"time_elapsed":43193,"internal_node_id":"0.0-7.0-1.0","subject":"rwfyea53ac2olh2","condition":"conditionA","secondlet":["P or A","C or R","B or S","W or F","T or E","D or L"],"controlword":["chair is brown","table is brown","rug is red","lamp is silver","sink is white","telephone is black"],"subword":["painting<br>plant<br>printer","chair<br>computer<br>curtain","book<br>bouquet<br>bed","window<br>wardrobe<br>wine rack","table<br>towel<br>toilet","display case<br>dresser<br>desk"]},{"rt":null,"stimulus":"<p>I see <b>a table</b> in this photo of a scene.</p><br>","button_pressed":null,"trial_type":"html-button-response","trial_index":9,"time_elapsed":46695,"internal_node_id":"0.0-7.0-2.0","subject":"rwfyea53ac2olh2","condition":"conditionA","firstlet":["P","C","B","W","T","D"],"secondlet":["P or A","C or R","B or S","W or F","T or E","D or L"],"cueword":["a chair","a table","a rug","a lamp","a sink","a telephone"],"controlword":["chair is brown","table is brown","rug is red","lamp is silver","sink is white","telephone is black"],"subword":["painting<br>plant<br>printer","chair<br>computer<br>curtain","book<br>bouquet<br>bed","window<br>wardrobe<br>wine rack","table<br>towel<br>toilet","display case<br>dresser<br>desk"]},{"rt":1879,"response":"32","stimulus":"<div><span id=\"time1\">00:59</span></div><p>I see <b>a table</b> in this photo of a scene.</p><p>What is the probability that I also see:<br> any object starting with C</p><br><p>Your answer is <span id=\"answer-display\"></span></p>","cueword":["a chair","a table","a rug","a lamp","a sink","a telephone"],"firstlet":["P","C","B","W","T","D"],"trial_type":"html-slider-response","trial_index":10,"time_elapsed":48577,"internal_node_id":"0.0-7.0-3.0","subject":"rwfyea53ac2olh2","condition":"conditionA","secondlet":["P or A","C or R","B or S","W or F","T or E","D or L"],"controlword":["chair is brown","table is brown","rug is red","lamp is silver","sink is white","telephone is black"],"subword":["painting<br>plant<br>printer","chair<br>computer<br>curtain","book<br>bouquet<br>bed","window<br>wardrobe<br>wine rack","table<br>towel<br>toilet","display case<br>dresser<br>desk"]},{"rt":null,"stimulus":"<p>I see <b>a rug</b> in this photo of a scene.</p><br>","button_pressed":null,"trial_type":"html-button-response","trial_index":11,"time_elapsed":52079,"internal_node_id":"0.0-7.0-4.0","subject":"rwfyea53ac2olh2","condition":"conditionA","firstlet":["P","C","B","W","T","D"],"secondlet":["P or A","C or R","B or S","W or F","T or E","D or L"],"cueword":["a chair","a table","a rug","a lamp","a sink","a telephone"],"controlword":["chair is brown","table is brown","rug is red","lamp is silver","sink is white","telephone is black"],"subword":["painting<br>plant<br>printer","chair<br>computer<br>curtain","book<br>bouquet<br>bed","window<br>wardrobe<br>wine rack","table<br>towel<br>toilet","display case<br>dresser<br>desk"]},{"rt":2371,"response":"15","stimulus":"<div><span id=\"time2\">00:59</span></div><p>I see <b>a rug</b> in this photo of a scene.</p><p>What is the probability that I also see:<br> any object starting with B</p><br><p>Your answer is <span id=\"answer-display\"></span></p>","cueword":["a chair","a table","a rug","a lamp","a sink","a telephone"],"firstlet":["P","C","B","W","T","D"],"trial_type":"html-slider-response","trial_index":12,"time_elapsed":54453,"internal_node_id":"0.0-7.0-5.0","subject":"rwfyea53ac2olh2","condition":"conditionA","secondlet":["P or A","C or R","B or S","W or F","T or E","D or L"],"controlword":["chair is brown","table is brown","rug is red","lamp is silver","sink is white","telephone is black"],"subword":["painting<br>plant<br>printer","chair<br>computer<br>curtain","book<br>bouquet<br>bed","window<br>wardrobe<br>wine rack","table<br>towel<br>toilet","display case<br>dresser<br>desk"]},{"rt":null,"stimulus":"<p>I see <b>a lamp</b> in this photo of a scene.</p><br>","button_pressed":null,"trial_type":"html-button-response","trial_index":13,"time_elapsed":57955,"internal_node_id":"0.0-7.0-6.0","subject":"rwfyea53ac2olh2","condition":"conditionA","firstlet":["P","C","B","W","T","D"],"secondlet":["P or A","C or R","B or S","W or F","T or E","D or L"],"cueword":["a chair","a table","a rug","a lamp","a sink","a telephone"],"controlword":["chair is brown","table is brown","rug is red","lamp is silver","sink is white","telephone is black"],"subword":["painting<br>plant<br>printer","chair<br>computer<br>curtain","book<br>bouquet<br>bed","window<br>wardrobe<br>wine rack","table<br>towel<br>toilet","display case<br>dresser<br>desk"]},{"rt":1388,"response":"66","stimulus":"<div><span id=\"time3\">00:59</span></div><p>I see <b>a lamp</b> in this photo of a scene.</p><p>What is the probability that I also see:<br> any object starting with W</p><br><p>Your answer is <span id=\"answer-display\"></span></p>","cueword":["a chair","a table","a rug","a lamp","a sink","a telephone"],"firstlet":["P","C","B","W","T","D"],"trial_type":"html-slider-response","trial_index":14,"time_elapsed":59345,"internal_node_id":"0.0-7.0-7.0","subject":"rwfyea53ac2olh2","condition":"conditionA","secondlet":["P or A","C or R","B or S","W or F","T or E","D or L"],"controlword":["chair is brown","table is brown","rug is red","lamp is silver","sink is white","telephone is black"],"subword":["painting<br>plant<br>printer","chair<br>computer<br>curtain","book<br>bouquet<br>bed","window<br>wardrobe<br>wine rack","table<br>towel<br>toilet","display case<br>dresser<br>desk"]},{"rt":null,"stimulus":"<p>I see <b>a sink</b> in this photo of a scene.</p><br>","button_pressed":null,"trial_type":"html-button-response","trial_index":15,"time_elapsed":62846,"internal_node_id":"0.0-7.0-8.0","subject":"rwfyea53ac2olh2","condition":"conditionA","firstlet":["P","C","B","W","T","D"],"secondlet":["P or A","C or R","B or S","W or F","T or E","D or L"],"cueword":["a chair","a table","a rug","a lamp","a sink","a telephone"],"controlword":["chair is brown","table is brown","rug is red","lamp is silver","sink is white","telephone is black"],"subword":["painting<br>plant<br>printer","chair<br>computer<br>curtain","book<br>bouquet<br>bed","window<br>wardrobe<br>wine rack","table<br>towel<br>toilet","display case<br>dresser<br>desk"]},{"rt":1292,"response":"38","stimulus":"<div><span id=\"time4\">00:59</span></div><p>I see <b>a sink</b> in this photo of a scene.</p><p>What is the probability that I also see:<br> any object starting with T</p><br><p>Your answer is <span id=\"answer-display\"></span></p>","cueword":["a chair","a table","a rug","a lamp","a sink","a telephone"],"firstlet":["P","C","B","W","T","D"],"trial_type":"html-slider-response","trial_index":16,"time_elapsed":64140,"internal_node_id":"0.0-7.0-9.0","subject":"rwfyea53ac2olh2","condition":"conditionA","secondlet":["P or A","C or R","B or S","W or F","T or E","D or L"],"controlword":["chair is brown","table is brown","rug is red","lamp is silver","sink is white","telephone is black"],"subword":["painting<br>plant<br>printer","chair<br>computer<br>curtain","book<br>bouquet<br>bed","window<br>wardrobe<br>wine rack","table<br>towel<br>toilet","display case<br>dresser<br>desk"]},{"rt":null,"stimulus":"<p>I see <b>a telephone</b> in this photo of a scene.</p><br>","button_pressed":null,"trial_type":"html-button-response","trial_index":17,"time_elapsed":67642,"internal_node_id":"0.0-7.0-10.0","subject":"rwfyea53ac2olh2","condition":"conditionA","firstlet":["P","C","B","W","T","D"],"secondlet":["P or A","C or R","B or S","W or F","T or E","D or L"],"cueword":["a chair","a table","a rug","a lamp","a sink","a telephone"],"controlword":["chair is brown","table is brown","rug is red","lamp is silver","sink is white","telephone is black"],"subword":["painting<br>plant<br>printer","chair<br>computer<br>curtain","book<br>bouquet<br>bed","window<br>wardrobe<br>wine rack","table<br>towel<br>toilet","display case<br>dresser<br>desk"]},{"rt":1497,"response":"44","stimulus":"<div><span id=\"time5\">00:59</span></div><p>I see <b>a telephone</b> in this photo of a scene.</p><p>What is the probability that I also see:<br> any object starting with D</p><br><p>Your answer is <span id=\"answer-display\"></span></p>","cueword":["a chair","a table","a rug","a lamp","a sink","a telephone"],"firstlet":["P","C","B","W","T","D"],"trial_type":"html-slider-response","trial_index":18,"time_elapsed":69143,"internal_node_id":"0.0-7.0-11.0","subject":"rwfyea53ac2olh2","condition":"conditionA","secondlet":["P or A","C or R","B or S","W or F","T or E","D or L"],"controlword":["chair is brown","table is brown","rug is red","lamp is silver","sink is white","telephone is black"],"subword":["painting<br>plant<br>printer","chair<br>computer<br>curtain","book<br>bouquet<br>bed","window<br>wardrobe<br>wine rack","table<br>towel<br>toilet","display case<br>dresser<br>desk"]},{"view_history":"[{\"page_index\":0,\"viewing_time\":1295},{\"page_index\":1,\"viewing_time\":5579}]","rt":6874,"trial_type":"instructions","trial_index":19,"time_elapsed":76019,"internal_node_id":"0.0-7.0-12.0","subject":"rwfyea53ac2olh2","condition":"conditionA","firstlet":["P","C","B","W","T","D"],"secondlet":["P or A","C or R","B or S","W or F","T or E","D or L"],"cueword":["a chair","a table","a rug","a lamp","a sink","a telephone"],"controlword":["chair is brown","table is brown","rug is red","lamp is silver","sink is white","telephone is black"],"subword":["painting<br>plant<br>printer","chair<br>computer<br>curtain","book<br>bouquet<br>bed","window<br>wardrobe<br>wine rack","table<br>towel<br>toilet","display case<br>dresser<br>desk"]},{"rt":6335,"stimulus":"<img src = \"img/8.png\" width=\"200\" height=\"200\">","key_press":68,"correct_response_data":68,"trial_type":"html-keyboard-response","trial_index":20,"time_elapsed":82357,"internal_node_id":"0.0-7.0-13.0","subject":"rwfyea53ac2olh2","condition":"conditionA","firstlet":["P","C","B","W","T","D"],"secondlet":["P or A","C or R","B or S","W or F","T or E","D or L"],"cueword":["a chair","a table","a rug","a lamp","a sink","a telephone"],"controlword":["chair is brown","table is brown","rug is red","lamp is silver","sink is white","telephone is black"],"subword":["painting<br>plant<br>printer","chair<br>computer<br>curtain","book<br>bouquet<br>bed","window<br>wardrobe<br>wine rack","table<br>towel<br>toilet","display case<br>dresser<br>desk"]},{"rt":null,"stimulus":"<p> Correct </p>","button_pressed":null,"trial_type":"html-button-response","trial_index":21,"time_elapsed":84361,"internal_node_id":"0.0-7.0-14.0","subject":"rwfyea53ac2olh2","condition":"conditionA","firstlet":["P","C","B","W","T","D"],"secondlet":["P or A","C or R","B or S","W or F","T or E","D or L"],"cueword":["a chair","a table","a rug","a lamp","a sink","a telephone"],"controlword":["chair is brown","table is brown","rug is red","lamp is silver","sink is white","telephone is black"],"subword":["painting<br>plant<br>printer","chair<br>computer<br>curtain","book<br>bouquet<br>bed","window<br>wardrobe<br>wine rack","table<br>towel<br>toilet","display case<br>dresser<br>desk"]},{"rt":1796,"stimulus":"<img src = \"img/5.png\" width=\"200\" height=\"200\">","key_press":68,"correct_response_data":68,"trial_type":"html-keyboard-response","trial_index":22,"time_elapsed":86159,"internal_node_id":"0.0-7.0-15.0","subject":"rwfyea53ac2olh2","condition":"conditionA","firstlet":["P","C","B","W","T","D"],"secondlet":["P or A","C or R","B or S","W or F","T or E","D or L"],"cueword":["a chair","a table","a rug","a lamp","a sink","a telephone"],"controlword":["chair is brown","table is brown","rug is red","lamp is silver","sink is white","telephone is black"],"subword":["painting<br>plant<br>printer","chair<br>computer<br>curtain","book<br>bouquet<br>bed","window<br>wardrobe<br>wine rack","table<br>towel<br>toilet","display case<br>dresser<br>desk"]},{"rt":null,"stimulus":"<p> Correct </p>","button_pressed":null,"trial_type":"html-button-response","trial_index":23,"time_elapsed":88161,"internal_node_id":"0.0-7.0-16.0","subject":"rwfyea53ac2olh2","condition":"conditionA","firstlet":["P","C","B","W","T","D"],"secondlet":["P or A","C or R","B or S","W or F","T or E","D or L"],"cueword":["a chair","a table","a rug","a lamp","a sink","a telephone"],"controlword":["chair is brown","table is brown","rug is red","lamp is silver","sink is white","telephone is black"],"subword":["painting<br>plant<br>printer","chair<br>computer<br>curtain","book<br>bouquet<br>bed","window<br>wardrobe<br>wine rack","table<br>towel<br>toilet","display case<br>dresser<br>desk"]},{"rt":1269,"stimulus":"<img src = \"img/3.png\" width=\"200\" height=\"200\">","key_press":68,"correct_response_data":68,"trial_type":"html-keyboard-response","trial_index":24,"time_elapsed":89432,"internal_node_id":"0.0-7.0-17.0","subject":"rwfyea53ac2olh2","condition":"conditionA","firstlet":["P","C","B","W","T","D"],"secondlet":["P or A","C or R","B or S","W or F","T or E","D or L"],"cueword":["a chair","a table","a rug","a lamp","a sink","a telephone"],"controlword":["chair is brown","table is brown","rug is red","lamp is silver","sink is white","telephone is black"],"subword":["painting<br>plant<br>printer","chair<br>computer<br>curtain","book<br>bouquet<br>bed","window<br>wardrobe<br>wine rack","table<br>towel<br>toilet","display case<br>dresser<br>desk"]},{"rt":null,"stimulus":"<p> Correct </p>","button_pressed":null,"trial_type":"html-button-response","trial_index":25,"time_elapsed":91434,"internal_node_id":"0.0-7.0-18.0","subject":"rwfyea53ac2olh2","condition":"conditionA","firstlet":["P","C","B","W","T","D"],"secondlet":["P or A","C or R","B or S","W or F","T or E","D or L"],"cueword":["a chair","a table","a rug","a lamp","a sink","a telephone"],"controlword":["chair is brown","table is brown","rug is red","lamp is silver","sink is white","telephone is black"],"subword":["painting<br>plant<br>printer","chair<br>computer<br>curtain","book<br>bouquet<br>bed","window<br>wardrobe<br>wine rack","table<br>towel<br>toilet","display case<br>dresser<br>desk"]},{"rt":862,"stimulus":"<img src = \"img/8.png\" width=\"200\" height=\"200\">","key_press":83,"correct_response_data":83,"trial_type":"html-keyboard-response","trial_index":26,"time_elapsed":92298,"internal_node_id":"0.0-7.0-19.0","subject":"rwfyea53ac2olh2","condition":"conditionA","firstlet":["P","C","B","W","T","D"],"secondlet":["P or A","C or R","B or S","W or F","T or E","D or L"],"cueword":["a chair","a table","a rug","a lamp","a sink","a telephone"],"controlword":["chair is brown","table is brown","rug is red","lamp is silver","sink is white","telephone is black"],"subword":["painting<br>plant<br>printer","chair<br>computer<br>curtain","book<br>bouquet<br>bed","window<br>wardrobe<br>wine rack","table<br>towel<br>toilet","display case<br>dresser<br>desk"]},{"rt":null,"stimulus":"<p> Correct </p>","button_pressed":null,"trial_type":"html-button-response","trial_index":27,"time_elapsed":94301,"internal_node_id":"0.0-7.0-20.0","subject":"rwfyea53ac2olh2","condition":"conditionA","firstlet":["P","C","B","W","T","D"],"secondlet":["P or A","C or R","B or S","W or F","T or E","D or L"],"cueword":["a chair","a table","a rug","a lamp","a sink","a telephone"],"controlword":["chair is brown","table is brown","rug is red","lamp is silver","sink is white","telephone is black"],"subword":["painting<br>plant<br>printer","chair<br>computer<br>curtain","book<br>bouquet<br>bed","window<br>wardrobe<br>wine rack","table<br>towel<br>toilet","display case<br>dresser<br>desk"]},{"rt":1124,"stimulus":"<img src = \"img/10.png\" width=\"200\" height=\"200\">","key_press":68,"correct_response_data":68,"trial_type":"html-keyboard-response","trial_index":28,"time_elapsed":95427,"internal_node_id":"0.0-7.0-21.0","subject":"rwfyea53ac2olh2","condition":"conditionA","firstlet":["P","C","B","W","T","D"],"secondlet":["P or A","C or R","B or S","W or F","T or E","D or L"],"cueword":["a chair","a table","a rug","a lamp","a sink","a telephone"],"controlword":["chair is brown","table is brown","rug is red","lamp is silver","sink is white","telephone is black"],"subword":["painting<br>plant<br>printer","chair<br>computer<br>curtain","book<br>bouquet<br>bed","window<br>wardrobe<br>wine rack","table<br>towel<br>toilet","display case<br>dresser<br>desk"]},{"rt":null,"stimulus":"<p> Correct </p>","button_pressed":null,"trial_type":"html-button-response","trial_index":29,"time_elapsed":97428,"internal_node_id":"0.0-7.0-22.0","subject":"rwfyea53ac2olh2","condition":"conditionA","firstlet":["P","C","B","W","T","D"],"secondlet":["P or A","C or R","B or S","W or F","T or E","D or L"],"cueword":["a chair","a table","a rug","a lamp","a sink","a telephone"],"controlword":["chair is brown","table is brown","rug is red","lamp is silver","sink is white","telephone is black"],"subword":["painting<br>plant<br>printer","chair<br>computer<br>curtain","book<br>bouquet<br>bed","window<br>wardrobe<br>wine rack","table<br>towel<br>toilet","display case<br>dresser<br>desk"]},{"rt":997,"stimulus":"<img src = \"img/1.png\" width=\"200\" height=\"200\">","key_press":68,"correct_response_data":68,"trial_type":"html-keyboard-response","trial_index":30,"time_elapsed":98428,"internal_node_id":"0.0-7.0-23.0","subject":"rwfyea53ac2olh2","condition":"conditionA","firstlet":["P","C","B","W","T","D"],"secondlet":["P or A","C or R","B or S","W or F","T or E","D or L"],"cueword":["a chair","a table","a rug","a lamp","a sink","a telephone"],"controlword":["chair is brown","table is brown","rug is red","lamp is silver","sink is white","telephone is black"],"subword":["painting<br>plant<br>printer","chair<br>computer<br>curtain","book<br>bouquet<br>bed","window<br>wardrobe<br>wine rack","table<br>towel<br>toilet","display case<br>dresser<br>desk"]},{"rt":null,"stimulus":"<p> Correct </p>","button_pressed":null,"trial_type":"html-button-response","trial_index":31,"time_elapsed":100429,"internal_node_id":"0.0-7.0-24.0","subject":"rwfyea53ac2olh2","condition":"conditionA","firstlet":["P","C","B","W","T","D"],"secondlet":["P or A","C or R","B or S","W or F","T or E","D or L"],"cueword":["a chair","a table","a rug","a lamp","a sink","a telephone"],"controlword":["chair is brown","table is brown","rug is red","lamp is silver","sink is white","telephone is black"],"subword":["painting<br>plant<br>printer","chair<br>computer<br>curtain","book<br>bouquet<br>bed","window<br>wardrobe<br>wine rack","table<br>towel<br>toilet","display case<br>dresser<br>desk"]},{"rt":679,"stimulus":"<img src = \"img/10.png\" width=\"200\" height=\"200\">","key_press":68,"correct_response_data":83,"trial_type":"html-keyboard-response","trial_index":32,"time_elapsed":101108,"internal_node_id":"0.0-7.0-25.0","subject":"rwfyea53ac2olh2","condition":"conditionA","firstlet":["P","C","B","W","T","D"],"secondlet":["P or A","C or R","B or S","W or F","T or E","D or L"],"cueword":["a chair","a table","a rug","a lamp","a sink","a telephone"],"controlword":["chair is brown","table is brown","rug is red","lamp is silver","sink is white","telephone is black"],"subword":["painting<br>plant<br>printer","chair<br>computer<br>curtain","book<br>bouquet<br>bed","window<br>wardrobe<br>wine rack","table<br>towel<br>toilet","display case<br>dresser<br>desk"]},{"rt":null,"stimulus":"<p> Incorrect </p>","button_pressed":null,"trial_type":"html-button-response","trial_index":33,"time_elapsed":103111,"internal_node_id":"0.0-7.0-26.0","subject":"rwfyea53ac2olh2","condition":"conditionA","firstlet":["P","C","B","W","T","D"],"secondlet":["P or A","C or R","B or S","W or F","T or E","D or L"],"cueword":["a chair","a table","a rug","a lamp","a sink","a telephone"],"controlword":["chair is brown","table is brown","rug is red","lamp is silver","sink is white","telephone is black"],"subword":["painting<br>plant<br>printer","chair<br>computer<br>curtain","book<br>bouquet<br>bed","window<br>wardrobe<br>wine rack","table<br>towel<br>toilet","display case<br>dresser<br>desk"]},{"view_history":"[{\"page_index\":0,\"viewing_time\":1807}]","rt":1807,"trial_type":"instructions","trial_index":34,"time_elapsed":104918,"internal_node_id":"0.0-7.0-27.0","subject":"rwfyea53ac2olh2","condition":"conditionA","firstlet":["P","C","B","W","T","D"],"secondlet":["P or A","C or R","B or S","W or F","T or E","D or L"],"cueword":["a chair","a table","a rug","a lamp","a sink","a telephone"],"controlword":["chair is brown","table is brown","rug is red","lamp is silver","sink is white","telephone is black"],"subword":["painting<br>plant<br>printer","chair<br>computer<br>curtain","book<br>bouquet<br>bed","window<br>wardrobe<br>wine rack","table<br>towel<br>toilet","display case<br>dresser<br>desk"]},{"rt":null,"stimulus":"<p>I see <b>a lamp</b> in this photo of a scene.</p><br>","button_pressed":null,"trial_type":"html-button-response","trial_index":35,"time_elapsed":108419,"internal_node_id":"0.0-7.0-28.0","subject":"rwfyea53ac2olh2","condition":"conditionA","firstlet":["P","C","B","W","T","D"],"secondlet":["P or A","C or R","B or S","W or F","T or E","D or L"],"cueword":["a chair","a table","a rug","a lamp","a sink","a telephone"],"controlword":["chair is brown","table is brown","rug is red","lamp is silver","sink is white","telephone is black"],"subword":["painting<br>plant<br>printer","chair<br>computer<br>curtain","book<br>bouquet<br>bed","window<br>wardrobe<br>wine rack","table<br>towel<br>toilet","display case<br>dresser<br>desk"]},{"rt":1971,"response":"18","stimulus":"<div><span id=\"time6\">00:59</span></div><p>I see <b>a lamp</b> in this photo of a scene.</p><p>What is the probability that I also see: <br> any other object starting with W or F<p>Your answer is <span id=\"answer-display\"></span></p>","cueword":["a chair","a table","a rug","a lamp","a sink","a telephone"],"secondlet":["P or A","C or R","B or S","W or F","T or E","D or L"],"trial_type":"html-slider-response","trial_index":36,"time_elapsed":110392,"internal_node_id":"0.0-7.0-29.0","subject":"rwfyea53ac2olh2","condition":"conditionA","firstlet":["P","C","B","W","T","D"],"controlword":["chair is brown","table is brown","rug is red","lamp is silver","sink is white","telephone is black"],"subword":["painting<br>plant<br>printer","chair<br>computer<br>curtain","book<br>bouquet<br>bed","window<br>wardrobe<br>wine rack","table<br>towel<br>toilet","display case<br>dresser<br>desk"]},{"rt":null,"stimulus":"<p>I see <b>a table</b> in this photo of a scene.</p><br>","button_pressed":null,"trial_type":"html-button-response","trial_index":37,"time_elapsed":113894,"internal_node_id":"0.0-7.0-30.0","subject":"rwfyea53ac2olh2","condition":"conditionA","firstlet":["P","C","B","W","T","D"],"secondlet":["P or A","C or R","B or S","W or F","T or E","D or L"],"cueword":["a chair","a table","a rug","a lamp","a sink","a telephone"],"controlword":["chair is brown","table is brown","rug is red","lamp is silver","sink is white","telephone is black"],"subword":["painting<br>plant<br>printer","chair<br>computer<br>curtain","book<br>bouquet<br>bed","window<br>wardrobe<br>wine rack","table<br>towel<br>toilet","display case<br>dresser<br>desk"]},{"rt":3394,"response":"17","stimulus":"<div><span id=\"time7\">00:59</span></div><p>I see <b>a table</b> in this photo of a scene.</p><p>What is the probability that I also see: <br> any other object starting with C or R<p>Your answer is <span id=\"answer-display\"></span></p>","cueword":["a chair","a table","a rug","a lamp","a sink","a telephone"],"secondlet":["P or A","C or R","B or S","W or F","T or E","D or L"],"trial_type":"html-slider-response","trial_index":38,"time_elapsed":117290,"internal_node_id":"0.0-7.0-31.0","subject":"rwfyea53ac2olh2","condition":"conditionA","firstlet":["P","C","B","W","T","D"],"controlword":["chair is brown","table is brown","rug is red","lamp is silver","sink is white","telephone is black"],"subword":["painting<br>plant<br>printer","chair<br>computer<br>curtain","book<br>bouquet<br>bed","window<br>wardrobe<br>wine rack","table<br>towel<br>toilet","display case<br>dresser<br>desk"]},{"rt":null,"stimulus":"<p>I see <b>a rug</b> in this photo of a scene.</p><br>","button_pressed":null,"trial_type":"html-button-response","trial_index":39,"time_elapsed":120793,"internal_node_id":"0.0-7.0-32.0","subject":"rwfyea53ac2olh2","condition":"conditionA","firstlet":["P","C","B","W","T","D"],"secondlet":["P or A","C or R","B or S","W or F","T or E","D or L"],"cueword":["a chair","a table","a rug","a lamp","a sink","a telephone"],"controlword":["chair is brown","table is brown","rug is red","lamp is silver","sink is white","telephone is black"],"subword":["painting<br>plant<br>printer","chair<br>computer<br>curtain","book<br>bouquet<br>bed","window<br>wardrobe<br>wine rack","table<br>towel<br>toilet","display case<br>dresser<br>desk"]},{"rt":4185,"response":"19","stimulus":"<div><span id=\"time8\">00:59</span></div><p>I see <b>a rug</b> in this photo of a scene.</p><p>What is the probability that I also see: <br> any other object starting with B or S<p>Your answer is <span id=\"answer-display\"></span></p>","cueword":["a chair","a table","a rug","a lamp","a sink","a telephone"],"secondlet":["P or A","C or R","B or S","W or F","T or E","D or L"],"trial_type":"html-slider-response","trial_index":40,"time_elapsed":124980,"internal_node_id":"0.0-7.0-33.0","subject":"rwfyea53ac2olh2","condition":"conditionA","firstlet":["P","C","B","W","T","D"],"controlword":["chair is brown","table is brown","rug is red","lamp is silver","sink is white","telephone is black"],"subword":["painting<br>plant<br>printer","chair<br>computer<br>curtain","book<br>bouquet<br>bed","window<br>wardrobe<br>wine rack","table<br>towel<br>toilet","display case<br>dresser<br>desk"]},{"rt":null,"stimulus":"<p>I see <b>a chair</b> in this photo of a scene.</p><br>","button_pressed":null,"trial_type":"html-button-response","trial_index":41,"time_elapsed":128482,"internal_node_id":"0.0-7.0-34.0","subject":"rwfyea53ac2olh2","condition":"conditionA","firstlet":["P","C","B","W","T","D"],"secondlet":["P or A","C or R","B or S","W or F","T or E","D or L"],"cueword":["a chair","a table","a rug","a lamp","a sink","a telephone"],"controlword":["chair is brown","table is brown","rug is red","lamp is silver","sink is white","telephone is black"],"subword":["painting<br>plant<br>printer","chair<br>computer<br>curtain","book<br>bouquet<br>bed","window<br>wardrobe<br>wine rack","table<br>towel<br>toilet","display case<br>dresser<br>desk"]},{"rt":1746,"response":"23","stimulus":"<div><span id=\"time9\">00:59</span></div><p>I see <b>a chair</b> in this photo of a scene.</p><p>What is the probability that I also see: <br> any other object starting with P or A<p>Your answer is <span id=\"answer-display\"></span></p>","cueword":["a chair","a table","a rug","a lamp","a sink","a telephone"],"secondlet":["P or A","C or R","B or S","W or F","T or E","D or L"],"trial_type":"html-slider-response","trial_index":42,"time_elapsed":130231,"internal_node_id":"0.0-7.0-35.0","subject":"rwfyea53ac2olh2","condition":"conditionA","firstlet":["P","C","B","W","T","D"],"controlword":["chair is brown","table is brown","rug is red","lamp is silver","sink is white","telephone is black"],"subword":["painting<br>plant<br>printer","chair<br>computer<br>curtain","book<br>bouquet<br>bed","window<br>wardrobe<br>wine rack","table<br>towel<br>toilet","display case<br>dresser<br>desk"]},{"rt":null,"stimulus":"<p>I see <b>a sink</b> in this photo of a scene.</p><br>","button_pressed":null,"trial_type":"html-button-response","trial_index":43,"time_elapsed":133733,"internal_node_id":"0.0-7.0-36.0","subject":"rwfyea53ac2olh2","condition":"conditionA","firstlet":["P","C","B","W","T","D"],"secondlet":["P or A","C or R","B or S","W or F","T or E","D or L"],"cueword":["a chair","a table","a rug","a lamp","a sink","a telephone"],"controlword":["chair is brown","table is brown","rug is red","lamp is silver","sink is white","telephone is black"],"subword":["painting<br>plant<br>printer","chair<br>computer<br>curtain","book<br>bouquet<br>bed","window<br>wardrobe<br>wine rack","table<br>towel<br>toilet","display case<br>dresser<br>desk"]},{"rt":2559,"response":"21","stimulus":"<div><span id=\"time10\">00:59</span></div><p>I see <b>a sink</b> in this photo of a scene.</p><p>What is the probability that I also see: <br> any other object starting with T or E<p>Your answer is <span id=\"answer-display\"></span></p>","cueword":["a chair","a table","a rug","a lamp","a sink","a telephone"],"secondlet":["P or A","C or R","B or S","W or F","T or E","D or L"],"trial_type":"html-slider-response","trial_index":44,"time_elapsed":136294,"internal_node_id":"0.0-7.0-37.0","subject":"rwfyea53ac2olh2","condition":"conditionA","firstlet":["P","C","B","W","T","D"],"controlword":["chair is brown","table is brown","rug is red","lamp is silver","sink is white","telephone is black"],"subword":["painting<br>plant<br>printer","chair<br>computer<br>curtain","book<br>bouquet<br>bed","window<br>wardrobe<br>wine rack","table<br>towel<br>toilet","display case<br>dresser<br>desk"]},{"rt":null,"stimulus":"<p>I see <b>a telephone</b> in this photo of a scene.</p><br>","button_pressed":null,"trial_type":"html-button-response","trial_index":45,"time_elapsed":139796,"internal_node_id":"0.0-7.0-38.0","subject":"rwfyea53ac2olh2","condition":"conditionA","firstlet":["P","C","B","W","T","D"],"secondlet":["P or A","C or R","B or S","W or F","T or E","D or L"],"cueword":["a chair","a table","a rug","a lamp","a sink","a telephone"],"controlword":["chair is brown","table is brown","rug is red","lamp is silver","sink is white","telephone is black"],"subword":["painting<br>plant<br>printer","chair<br>computer<br>curtain","book<br>bouquet<br>bed","window<br>wardrobe<br>wine rack","table<br>towel<br>toilet","display case<br>dresser<br>desk"]},{"rt":1274,"response":"26","stimulus":"<div><span id=\"time11\">00:59</span></div><p>I see <b>a telephone</b> in this photo of a scene.</p><p>What is the probability that I also see: <br> any other object starting with D or L<p>Your answer is <span id=\"answer-display\"></span></p>","cueword":["a chair","a table","a rug","a lamp","a sink","a telephone"],"secondlet":["P or A","C or R","B or S","W or F","T or E","D or L"],"trial_type":"html-slider-response","trial_index":46,"time_elapsed":141072,"internal_node_id":"0.0-7.0-39.0","subject":"rwfyea53ac2olh2","condition":"conditionA","firstlet":["P","C","B","W","T","D"],"controlword":["chair is brown","table is brown","rug is red","lamp is silver","sink is white","telephone is black"],"subword":["painting<br>plant<br>printer","chair<br>computer<br>curtain","book<br>bouquet<br>bed","window<br>wardrobe<br>wine rack","table<br>towel<br>toilet","display case<br>dresser<br>desk"]},{"rt":3502,"responses":"{\"Q0\":\"\"}","trial_type":"survey-text","trial_index":47,"time_elapsed":144579,"internal_node_id":"0.0-8.0","subject":"rwfyea53ac2olh2","condition":"conditionA","firstlet":["P","C","B","W","T","D"],"secondlet":["P or A","C or R","B or S","W or F","T or E","D or L"],"cueword":["a chair","a table","a rug","a lamp","a sink","a telephone"],"controlword":["chair is brown","table is brown","rug is red","lamp is silver","sink is white","telephone is black"],"subword":["painting<br>plant<br>printer","chair<br>computer<br>curtain","book<br>bouquet<br>bed","window<br>wardrobe<br>wine rack","table<br>towel<br>toilet","display case<br>dresser<br>desk"]}],"__v":0}
{"_id":{"$oid":"5ff8d92417794e0004b2565c"},"data":[{"rt":5052.635000029113,"responses":"{\"Q0\":\"5ea74136ed475611fa75345e\"}","trial_type":"survey-text","trial_index":0,"time_elapsed":5079,"internal_node_id":"0.0-0.0","subject":"uhreegbac79nzm5","condition":"conditionB","firstlet":["C","T","B","W","D","P"],"secondlet":["C or R","T or E","B or S","W or F","D or L","P or A"],"cueword":["a table","a sink","a rug","a lamp","a telephone","a chair"],"controlword":["table is brown","sink is white","rug is red","lamp is silver","telephone is black","chair is brown"],"subword":["chair<br>computer<br>curtain","table<br>towel<br>toilet","book<br>bouquet<br>bed","window<br>wardrobe<br>wine rack","display case<br>dresser<br>desk","painting<br>plant<br>printer"]},{"view_history":"[{\"page_index\":0,\"viewing_time\":2615.985000040382}]","rt":2617.7000000025146,"order":[0,4,1,5,2,3],"trial_type":"instructions","trial_index":1,"time_elapsed":7699,"internal_node_id":"0.0-1.0","subject":"uhreegbac79nzm5","condition":"conditionB","firstlet":["C","T","B","W","D","P"],"secondlet":["C or R","T or E","B or S","W or F","D or L","P or A"],"cueword":["a table","a sink","a rug","a lamp","a telephone","a chair"],"controlword":["table is brown","sink is white","rug is red","lamp is silver","telephone is black","chair is brown"],"subword":["chair<br>computer<br>curtain","table<br>towel<br>toilet","book<br>bouquet<br>bed","window<br>wardrobe<br>wine rack","display case<br>dresser<br>desk","painting<br>plant<br>printer"]},{"rt":12134.889999986626,"url":"informed_consent","trial_type":"external-html","trial_index":2,"time_elapsed":19969,"internal_node_id":"0.0-2.0","subject":"uhreegbac79nzm5","condition":"conditionB","firstlet":["C","T","B","W","D","P"],"secondlet":["C or R","T or E","B or S","W or F","D or L","P or A"],"cueword":["a table","a sink","a rug","a lamp","a telephone","a chair"],"controlword":["table is brown","sink is white","rug is red","lamp is silver","telephone is black","chair is brown"],"subword":["chair<br>computer<br>curtain","table<br>towel<br>toilet","book<br>bouquet<br>bed","window<br>wardrobe<br>wine rack","display case<br>dresser<br>desk","painting<br>plant<br>printer"]},{"view_history":"[{\"page_index\":0,\"viewing_time\":37897.9850000469}]","rt":37899.01000005193,"order":[0,4,1,5,2,3],"trial_type":"instructions","trial_index":3,"time_elapsed":57871,"internal_node_id":"0.0-3.0","subject":"uhreegbac79nzm5","condition":"conditionB","firstlet":["C","T","B","W","D","P"],"secondlet":["C or R","T or E","B or S","W or F","D or L","P or A"],"cueword":["a table","a sink","a rug","a lamp","a telephone","a chair"],"controlword":["table is brown","sink is white","rug is red","lamp is silver","telephone is black","chair is brown"],"subword":["chair<br>computer<br>curtain","table<br>towel<br>toilet","book<br>bouquet<br>bed","window<br>wardrobe<br>wine rack","display case<br>dresser<br>desk","painting<br>plant<br>printer"]},{"rt":null,"stimulus":"<p>This is an example trial</p><br><p>I see <b>a car</b> in this photo of a scene.</p>","button_pressed":null,"trial_type":"html-button-response","trial_index":4,"time_elapsed":61375,"internal_node_id":"0.0-4.0","subject":"uhreegbac79nzm5","condition":"conditionB","firstlet":["C","T","B","W","D","P"],"secondlet":["C or R","T or E","B or S","W or F","D or L","P or A"],"cueword":["a table","a sink","a rug","a lamp","a telephone","a chair"],"controlword":["table is brown","sink is white","rug is red","lamp is silver","telephone is black","chair is brown"],"subword":["chair<br>computer<br>curtain","table<br>towel<br>toilet","book<br>bouquet<br>bed","window<br>wardrobe<br>wine rack","display case<br>dresser<br>desk","painting<br>plant<br>printer"]},{"rt":10939.855000004172,"response":"71","stimulus":"<p>This is an example trial</p><br><p>I see <b>a car</b> in this photo of a scene.</p><p>What is the probability that I also see:<br> any other object starting with G</p><br><p>Your answer is <span id=\"answer-display\"></span></p>","trial_type":"html-slider-response","trial_index":5,"time_elapsed":72318,"internal_node_id":"0.0-5.0","subject":"uhreegbac79nzm5","condition":"conditionB","firstlet":["C","T","B","W","D","P"],"secondlet":["C or R","T or E","B or S","W or F","D or L","P or A"],"cueword":["a table","a sink","a rug","a lamp","a telephone","a chair"],"controlword":["table is brown","sink is white","rug is red","lamp is silver","telephone is black","chair is brown"],"subword":["chair<br>computer<br>curtain","table<br>towel<br>toilet","book<br>bouquet<br>bed","window<br>wardrobe<br>wine rack","display case<br>dresser<br>desk","painting<br>plant<br>printer"]},{"rt":3285.115000035148,"stimulus":"<h3>The experiment will now begin. Please press any key to continue.</h3>","key_press":32,"trial_type":"html-keyboard-response","trial_index":6,"time_elapsed":75605,"internal_node_id":"0.0-6.0","subject":"uhreegbac79nzm5","condition":"conditionB","firstlet":["C","T","B","W","D","P"],"secondlet":["C or R","T or E","B or S","W or F","D or L","P or A"],"cueword":["a table","a sink","a rug","a lamp","a telephone","a chair"],"controlword":["table is brown","sink is white","rug is red","lamp is silver","telephone is black","chair is brown"],"subword":["chair<br>computer<br>curtain","table<br>towel<br>toilet","book<br>bouquet<br>bed","window<br>wardrobe<br>wine rack","display case<br>dresser<br>desk","painting<br>plant<br>printer"]},{"rt":null,"stimulus":"<p>I see <b>a table</b> in this photo of a scene.</p><br>","button_pressed":null,"trial_type":"html-button-response","trial_index":7,"time_elapsed":79107,"internal_node_id":"0.0-7.0-0.0","subject":"uhreegbac79nzm5","condition":"conditionB","firstlet":["C","T","B","W","D","P"],"secondlet":["C or R","T or E","B or S","W or F","D or L","P or A"],"cueword":["a table","a sink","a rug","a lamp","a telephone","a chair"],"controlword":["table is brown","sink is white","rug is red","lamp is silver","telephone is black","chair is brown"],"subword":["chair<br>computer<br>curtain","table<br>towel<br>toilet","book<br>bouquet<br>bed","window<br>wardrobe<br>wine rack","display case<br>dresser<br>desk","painting<br>plant<br>printer"]},{"rt":14841.460000025108,"response":"80","stimulus":"<div><span id=\"time0\">00:59</span></div><p>I see <b>a table</b> in this photo of a scene.</p><p>What is the probability that I also see: <br>chair<br>computer<br>curtain<br>or any other object starting with C</p><br><p>Your answer is <span id=\"answer-display\"></span></p>","cueword":["a table","a sink","a rug","a lamp","a telephone","a chair"],"subword":["chair<br>computer<br>curtain","table<br>towel<br>toilet","book<br>bouquet<br>bed","window<br>wardrobe<br>wine rack","display case<br>dresser<br>desk","painting<br>plant<br>printer"],"firstlet":["C","T","B","W","D","P"],"trial_type":"html-slider-response","trial_index":8,"time_elapsed":93951,"internal_node_id":"0.0-7.0-1.0","subject":"uhreegbac79nzm5","condition":"conditionB","secondlet":["C or R","T or E","B or S","W or F","D or L","P or A"],"controlword":["table is brown","sink is white","rug is red","lamp is silver","telephone is black","chair is brown"]},{"rt":null,"stimulus":"<p>I see <b>a sink</b> in this photo of a scene.</p><br>","button_pressed":null,"trial_type":"html-button-response","trial_index":9,"time_elapsed":97453,"internal_node_id":"0.0-7.0-2.0","subject":"uhreegbac79nzm5","condition":"conditionB","firstlet":["C","T","B","W","D","P"],"secondlet":["C or R","T or E","B or S","W or F","D or L","P or A"],"cueword":["a table","a sink","a rug","a lamp","a telephone","a chair"],"controlword":["table is brown","sink is white","rug is red","lamp is silver","telephone is black","chair is brown"],"subword":["chair<br>computer<br>curtain","table<br>towel<br>toilet","book<br>bouquet<br>bed","window<br>wardrobe<br>wine rack","display case<br>dresser<br>desk","painting<br>plant<br>printer"]},{"rt":5664.990000019316,"response":"90","stimulus":"<div><span id=\"time1\">00:59</span></div><p>I see <b>a sink</b> in this photo of a scene.</p><p>What is the probability that I also see: <br>table<br>towel<br>toilet<br>or any other object starting with T</p><br><p>Your answer is <span id=\"answer-display\"></span></p>","cueword":["a table","a sink","a rug","a lamp","a telephone","a chair"],"subword":["chair<br>computer<br>curtain","table<br>towel<br>toilet","book<br>bouquet<br>bed","window<br>wardrobe<br>wine rack","display case<br>dresser<br>desk","painting<br>plant<br>printer"],"firstlet":["C","T","B","W","D","P"],"trial_type":"html-slider-response","trial_index":10,"time_elapsed":103121,"internal_node_id":"0.0-7.0-3.0","subject":"uhreegbac79nzm5","condition":"conditionB","secondlet":["C or R","T or E","B or S","W or F","D or L","P or A"],"controlword":["table is brown","sink is white","rug is red","lamp is silver","telephone is black","chair is brown"]},{"rt":null,"stimulus":"<p>I see <b>a rug</b> in this photo of a scene.</p><br>","button_pressed":null,"trial_type":"html-button-response","trial_index":11,"time_elapsed":106623,"internal_node_id":"0.0-7.0-4.0","subject":"uhreegbac79nzm5","condition":"conditionB","firstlet":["C","T","B","W","D","P"],"secondlet":["C or R","T or E","B or S","W or F","D or L","P or A"],"cueword":["a table","a sink","a rug","a lamp","a telephone","a chair"],"controlword":["table is brown","sink is white","rug is red","lamp is silver","telephone is black","chair is brown"],"subword":["chair<br>computer<br>curtain","table<br>towel<br>toilet","book<br>bouquet<br>bed","window<br>wardrobe<br>wine rack","display case<br>dresser<br>desk","painting<br>plant<br>printer"]},{"rt":13376.61500001559,"response":"21","stimulus":"<div><span id=\"time2\">00:59</span></div><p>I see <b>a rug</b> in this photo of a scene.</p><p>What is the probability that I also see: <br>book<br>bouquet<br>bed<br>or any other object starting with B</p><br><p>Your answer is <span id=\"answer-display\"></span></p>","cueword":["a table","a sink","a rug","a lamp","a telephone","a chair"],"subword":["chair<br>computer<br>curtain","table<br>towel<br>toilet","book<br>bouquet<br>bed","window<br>wardrobe<br>wine rack","display case<br>dresser<br>desk","painting<br>plant<br>printer"],"firstlet":["C","T","B","W","D","P"],"trial_type":"html-slider-response","trial_index":12,"time_elapsed":120004,"internal_node_id":"0.0-7.0-5.0","subject":"uhreegbac79nzm5","condition":"conditionB","secondlet":["C or R","T or E","B or S","W or F","D or L","P or A"],"controlword":["table is brown","sink is white","rug is red","lamp is silver","telephone is black","chair is brown"]},{"rt":null,"stimulus":"<p>I see <b>a lamp</b> in this photo of a scene.</p><br>","button_pressed":null,"trial_type":"html-button-response","trial_index":13,"time_elapsed":123506,"internal_node_id":"0.0-7.0-6.0","subject":"uhreegbac79nzm5","condition":"conditionB","firstlet":["C","T","B","W","D","P"],"secondlet":["C or R","T or E","B or S","W or F","D or L","P or A"],"cueword":["a table","a sink","a rug","a lamp","a telephone","a chair"],"controlword":["table is brown","sink is white","rug is red","lamp is silver","telephone is black","chair is brown"],"subword":["chair<br>computer<br>curtain","table<br>towel<br>toilet","book<br>bouquet<br>bed","window<br>wardrobe<br>wine rack","display case<br>dresser<br>desk","painting<br>plant<br>printer"]},{"rt":5928.5450000315905,"response":"66","stimulus":"<div><span id=\"time3\">00:59</span></div><p>I see <b>a lamp</b> in this photo of a scene.</p><p>What is the probability that I also see: <br>window<br>wardrobe<br>wine rack<br>or any other object starting with W</p><br><p>Your answer is <span id=\"answer-display\"></span></p>","cueword":["a table","a sink","a rug","a lamp","a telephone","a chair"],"subword":["chair<br>computer<br>curtain","table<br>towel<br>toilet","book<br>bouquet<br>bed","window<br>wardrobe<br>wine rack","display case<br>dresser<br>desk","painting<br>plant<br>printer"],"firstlet":["C","T","B","W","D","P"],"trial_type":"html-slider-response","trial_index":14,"time_elapsed":129437,"internal_node_id":"0.0-7.0-7.0","subject":"uhreegbac79nzm5","condition":"conditionB","secondlet":["C or R","T or E","B or S","W or F","D or L","P or A"],"controlword":["table is brown","sink is white","rug is red","lamp is silver","telephone is black","chair is brown"]},{"rt":null,"stimulus":"<p>I see <b>a telephone</b> in this photo of a scene.</p><br>","button_pressed":null,"trial_type":"html-button-response","trial_index":15,"time_elapsed":132940,"internal_node_id":"0.0-7.0-8.0","subject":"uhreegbac79nzm5","condition":"conditionB","firstlet":["C","T","B","W","D","P"],"secondlet":["C or R","T or E","B or S","W or F","D or L","P or A"],"cueword":["a table","a sink","a rug","a lamp","a telephone","a chair"],"controlword":["table is brown","sink is white","rug is red","lamp is silver","telephone is black","chair is brown"],"subword":["chair<br>computer<br>curtain","table<br>towel<br>toilet","book<br>bouquet<br>bed","window<br>wardrobe<br>wine rack","display case<br>dresser<br>desk","painting<br>plant<br>printer"]},{"rt":5437.819999991916,"response":"81","stimulus":"<div><span id=\"time4\">00:59</span></div><p>I see <b>a telephone</b> in this photo of a scene.</p><p>What is the probability that I also see: <br>display case<br>dresser<br>desk<br>or any other object starting with D</p><br><p>Your answer is <span id=\"answer-display\"></span></p>","cueword":["a table","a sink","a rug","a lamp","a telephone","a chair"],"subword":["chair<br>computer<br>curtain","table<br>towel<br>toilet","book<br>bouquet<br>bed","window<br>wardrobe<br>wine rack","display case<br>dresser<br>desk","painting<br>plant<br>printer"],"firstlet":["C","T","B","W","D","P"],"trial_type":"html-slider-response","trial_index":16,"time_elapsed":138381,"internal_node_id":"0.0-7.0-9.0","subject":"uhreegbac79nzm5","condition":"conditionB","secondlet":["C or R","T or E","B or S","W or F","D or L","P or A"],"controlword":["table is brown","sink is white","rug is red","lamp is silver","telephone is black","chair is brown"]},{"rt":null,"stimulus":"<p>I see <b>a chair</b> in this photo of a scene.</p><br>","button_pressed":null,"trial_type":"html-button-response","trial_index":17,"time_elapsed":141883,"internal_node_id":"0.0-7.0-10.0","subject":"uhreegbac79nzm5","condition":"conditionB","firstlet":["C","T","B","W","D","P"],"secondlet":["C or R","T or E","B or S","W or F","D or L","P or A"],"cueword":["a table","a sink","a rug","a lamp","a telephone","a chair"],"controlword":["table is brown","sink is white","rug is red","lamp is silver","telephone is black","chair is brown"],"subword":["chair<br>computer<br>curtain","table<br>towel<br>toilet","book<br>bouquet<br>bed","window<br>wardrobe<br>wine rack","display case<br>dresser<br>desk","painting<br>plant<br>printer"]},{"rt":12296.840000024531,"response":"30","stimulus":"<div><span id=\"time5\">00:59</span></div><p>I see <b>a chair</b> in this photo of a scene.</p><p>What is the probability that I also see: <br>painting<br>plant<br>printer<br>or any other object starting with P</p><br><p>Your answer is <span id=\"answer-display\"></span></p>","cueword":["a table","a sink","a rug","a lamp","a telephone","a chair"],"subword":["chair<br>computer<br>curtain","table<br>towel<br>toilet","book<br>bouquet<br>bed","window<br>wardrobe<br>wine rack","display case<br>dresser<br>desk","painting<br>plant<br>printer"],"firstlet":["C","T","B","W","D","P"],"trial_type":"html-slider-response","trial_index":18,"time_elapsed":154182,"internal_node_id":"0.0-7.0-11.0","subject":"uhreegbac79nzm5","condition":"conditionB","secondlet":["C or R","T or E","B or S","W or F","D or L","P or A"],"controlword":["table is brown","sink is white","rug is red","lamp is silver","telephone is black","chair is brown"]},{"view_history":"[{\"page_index\":0,\"viewing_time\":1654.5049999840558},{\"page_index\":1,\"viewing_time\":6089.665000035893}]","rt":7744.699999981094,"trial_type":"instructions","trial_index":19,"time_elapsed":161928,"internal_node_id":"0.0-7.0-12.0","subject":"uhreegbac79nzm5","condition":"conditionB","firstlet":["C","T","B","W","D","P"],"secondlet":["C or R","T or E","B or S","W or F","D or L","P or A"],"cueword":["a table","a sink","a rug","a lamp","a telephone","a chair"],"controlword":["table is brown","sink is white","rug is red","lamp is silver","telephone is black","chair is brown"],"subword":["chair<br>computer<br>curtain","table<br>towel<br>toilet","book<br>bouquet<br>bed","window<br>wardrobe<br>wine rack","display case<br>dresser<br>desk","painting<br>plant<br>printer"]},{"rt":4096.11500002211,"stimulus":"<img src = \"img/5.png\" width=\"200\" height=\"200\">","key_press":68,"correct_response_data":68,"trial_type":"html-keyboard-response","trial_index":20,"time_elapsed":166027,"internal_node_id":"0.0-7.0-13.0","subject":"uhreegbac79nzm5","condition":"conditionB","firstlet":["C","T","B","W","D","P"],"secondlet":["C or R","T or E","B or S","W or F","D or L","P or A"],"cueword":["a table","a sink","a rug","a lamp","a telephone","a chair"],"controlword":["table is brown","sink is white","rug is red","lamp is silver","telephone is black","chair is brown"],"subword":["chair<br>computer<br>curtain","table<br>towel<br>toilet","book<br>bouquet<br>bed","window<br>wardrobe<br>wine rack","display case<br>dresser<br>desk","painting<br>plant<br>printer"]},{"rt":null,"stimulus":"<p> Correct </p>","button_pressed":null,"trial_type":"html-button-response","trial_index":21,"time_elapsed":168030,"internal_node_id":"0.0-7.0-14.0","subject":"uhreegbac79nzm5","condition":"conditionB","firstlet":["C","T","B","W","D","P"],"secondlet":["C or R","T or E","B or S","W or F","D or L","P or A"],"cueword":["a table","a sink","a rug","a lamp","a telephone","a chair"],"controlword":["table is brown","sink is white","rug is red","lamp is silver","telephone is black","chair is brown"],"subword":["chair<br>computer<br>curtain","table<br>towel<br>toilet","book<br>bouquet<br>bed","window<br>wardrobe<br>wine rack","display case<br>dresser<br>desk","painting<br>plant<br>printer"]},{"rt":1538.7350000091828,"stimulus":"<img src = \"img/8.png\" width=\"200\" height=\"200\">","key_press":68,"correct_response_data":68,"trial_type":"html-keyboard-response","trial_index":22,"time_elapsed":169570,"internal_node_id":"0.0-7.0-15.0","subject":"uhreegbac79nzm5","condition":"conditionB","firstlet":["C","T","B","W","D","P"],"secondlet":["C or R","T or E","B or S","W or F","D or L","P or A"],"cueword":["a table","a sink","a rug","a lamp","a telephone","a chair"],"controlword":["table is brown","sink is white","rug is red","lamp is silver","telephone is black","chair is brown"],"subword":["chair<br>computer<br>curtain","table<br>towel<br>toilet","book<br>bouquet<br>bed","window<br>wardrobe<br>wine rack","display case<br>dresser<br>desk","painting<br>plant<br>printer"]},{"rt":null,"stimulus":"<p> Correct </p>","button_pressed":null,"trial_type":"html-button-response","trial_index":23,"time_elapsed":171573,"internal_node_id":"0.0-7.0-16.0","subject":"uhreegbac79nzm5","condition":"conditionB","firstlet":["C","T","B","W","D","P"],"secondlet":["C or R","T or E","B or S","W or F","D or L","P or A"],"cueword":["a table","a sink","a rug","a lamp","a telephone","a chair"],"controlword":["table is brown","sink is white","rug is red","lamp is silver","telephone is black","chair is brown"],"subword":["chair<br>computer<br>curtain","table<br>towel<br>toilet","book<br>bouquet<br>bed","window<br>wardrobe<br>wine rack","display case<br>dresser<br>desk","painting<br>plant<br>printer"]},{"rt":866.4049999788404,"stimulus":"<img src = \"img/1.png\" width=\"200\" height=\"200\">","key_press":68,"correct_response_data":68,"trial_type":"html-keyboard-response","trial_index":24,"time_elapsed":172441,"internal_node_id":"0.0-7.0-17.0","subject":"uhreegbac79nzm5","condition":"conditionB","firstlet":["C","T","B","W","D","P"],"secondlet":["C or R","T or E","B or S","W or F","D or L","P or A"],"cueword":["a table","a sink","a rug","a lamp","a telephone","a chair"],"controlword":["table is brown","sink is white","rug is red","lamp is silver","telephone is black","chair is brown"],"subword":["chair<br>computer<br>curtain","table<br>towel<br>toilet","book<br>bouquet<br>bed","window<br>wardrobe<br>wine rack","display case<br>dresser<br>desk","painting<br>plant<br>printer"]},{"rt":null,"stimulus":"<p> Correct </p>","button_pressed":null,"trial_type":"html-button-response","trial_index":25,"time_elapsed":174443,"internal_node_id":"0.0-7.0-18.0","subject":"uhreegbac79nzm5","condition":"conditionB","firstlet":["C","T","B","W","D","P"],"secondlet":["C or R","T or E","B or S","W or F","D or L","P or A"],"cueword":["a table","a sink","a rug","a lamp","a telephone","a chair"],"controlword":["table is brown","sink is white","rug is red","lamp is silver","telephone is black","chair is brown"],"subword":["chair<br>computer<br>curtain","table<br>towel<br>toilet","book<br>bouquet<br>bed","window<br>wardrobe<br>wine rack","display case<br>dresser<br>desk","painting<br>plant<br>printer"]},{"rt":662.1999999624677,"stimulus":"<img src = \"img/6.png\" width=\"200\" height=\"200\">","key_press":68,"correct_response_data":68,"trial_type":"html-keyboard-response","trial_index":26,"time_elapsed":175107,"internal_node_id":"0.0-7.0-19.0","subject":"uhreegbac79nzm5","condition":"conditionB","firstlet":["C","T","B","W","D","P"],"secondlet":["C or R","T or E","B or S","W or F","D or L","P or A"],"cueword":["a table","a sink","a rug","a lamp","a telephone","a chair"],"controlword":["table is brown","sink is white","rug is red","lamp is silver","telephone is black","chair is brown"],"subword":["chair<br>computer<br>curtain","table<br>towel<br>toilet","book<br>bouquet<br>bed","window<br>wardrobe<br>wine rack","display case<br>dresser<br>desk","painting<br>plant<br>printer"]},{"rt":null,"stimulus":"<p> Correct </p>","button_pressed":null,"trial_type":"html-button-response","trial_index":27,"time_elapsed":177108,"internal_node_id":"0.0-7.0-20.0","subject":"uhreegbac79nzm5","condition":"conditionB","firstlet":["C","T","B","W","D","P"],"secondlet":["C or R","T or E","B or S","W or F","D or L","P or A"],"cueword":["a table","a sink","a rug","a lamp","a telephone","a chair"],"controlword":["table is brown","sink is white","rug is red","lamp is silver","telephone is black","chair is brown"],"subword":["chair<br>computer<br>curtain","table<br>towel<br>toilet","book<br>bouquet<br>bed","window<br>wardrobe<br>wine rack","display case<br>dresser<br>desk","painting<br>plant<br>printer"]},{"rt":2236.574999988079,"stimulus":"<img src = \"img/6.png\" width=\"200\" height=\"200\">","key_press":83,"correct_response_data":83,"trial_type":"html-keyboard-response","trial_index":28,"time_elapsed":179346,"internal_node_id":"0.0-7.0-21.0","subject":"uhreegbac79nzm5","condition":"conditionB","firstlet":["C","T","B","W","D","P"],"secondlet":["C or R","T or E","B or S","W or F","D or L","P or A"],"cueword":["a table","a sink","a rug","a lamp","a telephone","a chair"],"controlword":["table is brown","sink is white","rug is red","lamp is silver","telephone is black","chair is brown"],"subword":["chair<br>computer<br>curtain","table<br>towel<br>toilet","book<br>bouquet<br>bed","window<br>wardrobe<br>wine rack","display case<br>dresser<br>desk","painting<br>plant<br>printer"]},{"rt":null,"stimulus":"<p> Correct </p>","button_pressed":null,"trial_type":"html-button-response","trial_index":29,"time_elapsed":181348,"internal_node_id":"0.0-7.0-22.0","subject":"uhreegbac79nzm5","condition":"conditionB","firstlet":["C","T","B","W","D","P"],"secondlet":["C or R","T or E","B or S","W or F","D or L","P or A"],"cueword":["a table","a sink","a rug","a lamp","a telephone","a chair"],"controlword":["table is brown","sink is white","rug is red","lamp is silver","telephone is black","chair is brown"],"subword":["chair<br>computer<br>curtain","table<br>towel<br>toilet","book<br>bouquet<br>bed","window<br>wardrobe<br>wine rack","display case<br>dresser<br>desk","painting<br>plant<br>printer"]},{"rt":812.6700000138953,"stimulus":"<img src = \"img/9.png\" width=\"200\" height=\"200\">","key_press":68,"correct_response_data":68,"trial_type":"html-keyboard-response","trial_index":30,"time_elapsed":182162,"internal_node_id":"0.0-7.0-23.0","subject":"uhreegbac79nzm5","condition":"conditionB","firstlet":["C","T","B","W","D","P"],"secondlet":["C or R","T or E","B or S","W or F","D or L","P or A"],"cueword":["a table","a sink","a rug","a lamp","a telephone","a chair"],"controlword":["table is brown","sink is white","rug is red","lamp is silver","telephone is black","chair is brown"],"subword":["chair<br>computer<br>curtain","table<br>towel<br>toilet","book<br>bouquet<br>bed","window<br>wardrobe<br>wine rack","display case<br>dresser<br>desk","painting<br>plant<br>printer"]},{"rt":null,"stimulus":"<p> Correct </p>","button_pressed":null,"trial_type":"html-button-response","trial_index":31,"time_elapsed":184164,"internal_node_id":"0.0-7.0-24.0","subject":"uhreegbac79nzm5","condition":"conditionB","firstlet":["C","T","B","W","D","P"],"secondlet":["C or R","T or E","B or S","W or F","D or L","P or A"],"cueword":["a table","a sink","a rug","a lamp","a telephone","a chair"],"controlword":["table is brown","sink is white","rug is red","lamp is silver","telephone is black","chair is brown"],"subword":["chair<br>computer<br>curtain","table<br>towel<br>toilet","book<br>bouquet<br>bed","window<br>wardrobe<br>wine rack","display case<br>dresser<br>desk","painting<br>plant<br>printer"]},{"rt":826.7950000008568,"stimulus":"<img src = \"img/2.png\" width=\"200\" height=\"200\">","key_press":68,"correct_response_data":68,"trial_type":"html-keyboard-response","trial_index":32,"time_elapsed":184993,"internal_node_id":"0.0-7.0-25.0","subject":"uhreegbac79nzm5","condition":"conditionB","firstlet":["C","T","B","W","D","P"],"secondlet":["C or R","T or E","B or S","W or F","D or L","P or A"],"cueword":["a table","a sink","a rug","a lamp","a telephone","a chair"],"controlword":["table is brown","sink is white","rug is red","lamp is silver","telephone is black","chair is brown"],"subword":["chair<br>computer<br>curtain","table<br>towel<br>toilet","book<br>bouquet<br>bed","window<br>wardrobe<br>wine rack","display case<br>dresser<br>desk","painting<br>plant<br>printer"]},{"rt":null,"stimulus":"<p> Correct </p>","button_pressed":null,"trial_type":"html-button-response","trial_index":33,"time_elapsed":186995,"internal_node_id":"0.0-7.0-26.0","subject":"uhreegbac79nzm5","condition":"conditionB","firstlet":["C","T","B","W","D","P"],"secondlet":["C or R","T or E","B or S","W or F","D or L","P or A"],"cueword":["a table","a sink","a rug","a lamp","a telephone","a chair"],"controlword":["table is brown","sink is white","rug is red","lamp is silver","telephone is black","chair is brown"],"subword":["chair<br>computer<br>curtain","table<br>towel<br>toilet","book<br>bouquet<br>bed","window<br>wardrobe<br>wine rack","display case<br>dresser<br>desk","painting<br>plant<br>printer"]},{"view_history":"[{\"page_index\":0,\"viewing_time\":2447.504999989178}]","rt":2448.1399999931455,"trial_type":"instructions","trial_index":34,"time_elapsed":189444,"internal_node_id":"0.0-7.0-27.0","subject":"uhreegbac79nzm5","condition":"conditionB","firstlet":["C","T","B","W","D","P"],"secondlet":["C or R","T or E","B or S","W or F","D or L","P or A"],"cueword":["a table","a sink","a rug","a lamp","a telephone","a chair"],"controlword":["table is brown","sink is white","rug is red","lamp is silver","telephone is black","chair is brown"],"subword":["chair<br>computer<br>curtain","table<br>towel<br>toilet","book<br>bouquet<br>bed","window<br>wardrobe<br>wine rack","display case<br>dresser<br>desk","painting<br>plant<br>printer"]},{"rt":null,"stimulus":"<p>I see <b>a table</b> in this photo of a scene.</p><br>","button_pressed":null,"trial_type":"html-button-response","trial_index":35,"time_elapsed":192946,"internal_node_id":"0.0-7.0-28.0","subject":"uhreegbac79nzm5","condition":"conditionB","firstlet":["C","T","B","W","D","P"],"secondlet":["C or R","T or E","B or S","W or F","D or L","P or A"],"cueword":["a table","a sink","a rug","a lamp","a telephone","a chair"],"controlword":["table is brown","sink is white","rug is red","lamp is silver","telephone is black","chair is brown"],"subword":["chair<br>computer<br>curtain","table<br>towel<br>toilet","book<br>bouquet<br>bed","window<br>wardrobe<br>wine rack","display case<br>dresser<br>desk","painting<br>plant<br>printer"]},{"rt":8451.264999981504,"response":"82","stimulus":"<div><span id=\"time6\">00:59</span></div><p>I see <b>a table</b> in this photo of a scene.</p><p>What is the probability that I also see: <br> any other object starting with C or R<p>Your answer is <span id=\"answer-display\"></span></p>","cueword":["a table","a sink","a rug","a lamp","a telephone","a chair"],"secondlet":["C or R","T or E","B or S","W or F","D or L","P or A"],"trial_type":"html-slider-response","trial_index":36,"time_elapsed":201400,"internal_node_id":"0.0-7.0-29.0","subject":"uhreegbac79nzm5","condition":"conditionB","firstlet":["C","T","B","W","D","P"],"controlword":["table is brown","sink is white","rug is red","lamp is silver","telephone is black","chair is brown"],"subword":["chair<br>computer<br>curtain","table<br>towel<br>toilet","book<br>bouquet<br>bed","window<br>wardrobe<br>wine rack","display case<br>dresser<br>desk","painting<br>plant<br>printer"]},{"rt":null,"stimulus":"<p>I see <b>a telephone</b> in this photo of a scene.</p><br>","button_pressed":null,"trial_type":"html-button-response","trial_index":37,"time_elapsed":204902,"internal_node_id":"0.0-7.0-30.0","subject":"uhreegbac79nzm5","condition":"conditionB","firstlet":["C","T","B","W","D","P"],"secondlet":["C or R","T or E","B or S","W or F","D or L","P or A"],"cueword":["a table","a sink","a rug","a lamp","a telephone","a chair"],"controlword":["table is brown","sink is white","rug is red","lamp is silver","telephone is black","chair is brown"],"subword":["chair<br>computer<br>curtain","table<br>towel<br>toilet","book<br>bouquet<br>bed","window<br>wardrobe<br>wine rack","display case<br>dresser<br>desk","painting<br>plant<br>printer"]},{"rt":13070.280000043567,"response":"55","stimulus":"<div><span id=\"time7\">00:59</span></div><p>I see <b>a telephone</b> in this photo of a scene.</p><p>What is the probability that I also see: <br> any other object starting with D or L<p>Your answer is <span id=\"answer-display\"></span></p>","cueword":["a table","a sink","a rug","a lamp","a telephone","a chair"],"secondlet":["C or R","T or E","B or S","W or F","D or L","P or A"],"trial_type":"html-slider-response","trial_index":38,"time_elapsed":217975,"internal_node_id":"0.0-7.0-31.0","subject":"uhreegbac79nzm5","condition":"conditionB","firstlet":["C","T","B","W","D","P"],"controlword":["table is brown","sink is white","rug is red","lamp is silver","telephone is black","chair is brown"],"subword":["chair<br>computer<br>curtain","table<br>towel<br>toilet","book<br>bouquet<br>bed","window<br>wardrobe<br>wine rack","display case<br>dresser<br>desk","painting<br>plant<br>printer"]},{"rt":null,"stimulus":"<p>I see <b>a sink</b> in this photo of a scene.</p><br>","button_pressed":null,"trial_type":"html-button-response","trial_index":39,"time_elapsed":221477,"internal_node_id":"0.0-7.0-32.0","subject":"uhreegbac79nzm5","condition":"conditionB","firstlet":["C","T","B","W","D","P"],"secondlet":["C or R","T or E","B or S","W or F","D or L","P or A"],"cueword":["a table","a sink","a rug","a lamp","a telephone","a chair"],"controlword":["table is brown","sink is white","rug is red","lamp is silver","telephone is black","chair is brown"],"subword":["chair<br>computer<br>curtain","table<br>towel<br>toilet","book<br>bouquet<br>bed","window<br>wardrobe<br>wine rack","display case<br>dresser<br>desk","painting<br>plant<br>printer"]},{"rt":3689.2750000115484,"response":"84","stimulus":"<div><span id=\"time8\">00:59</span></div><p>I see <b>a sink</b> in this photo of a scene.</p><p>What is the probability that I also see: <br> any other object starting with T or E<p>Your answer is <span id=\"answer-display\"></span></p>","cueword":["a table","a sink","a rug","a lamp","a telephone","a chair"],"secondlet":["C or R","T or E","B or S","W or F","D or L","P or A"],"trial_type":"html-slider-response","trial_index":40,"time_elapsed":225169,"internal_node_id":"0.0-7.0-33.0","subject":"uhreegbac79nzm5","condition":"conditionB","firstlet":["C","T","B","W","D","P"],"controlword":["table is brown","sink is white","rug is red","lamp is silver","telephone is black","chair is brown"],"subword":["chair<br>computer<br>curtain","table<br>towel<br>toilet","book<br>bouquet<br>bed","window<br>wardrobe<br>wine rack","display case<br>dresser<br>desk","painting<br>plant<br>printer"]},{"rt":null,"stimulus":"<p>I see <b>a chair</b> in this photo of a scene.</p><br>","button_pressed":null,"trial_type":"html-button-response","trial_index":41,"time_elapsed":228671,"internal_node_id":"0.0-7.0-34.0","subject":"uhreegbac79nzm5","condition":"conditionB","firstlet":["C","T","B","W","D","P"],"secondlet":["C or R","T or E","B or S","W or F","D or L","P or A"],"cueword":["a table","a sink","a rug","a lamp","a telephone","a chair"],"controlword":["table is brown","sink is white","rug is red","lamp is silver","telephone is black","chair is brown"],"subword":["chair<br>computer<br>curtain","table<br>towel<br>toilet","book<br>bouquet<br>bed","window<br>wardrobe<br>wine rack","display case<br>dresser<br>desk","painting<br>plant<br>printer"]},{"rt":15574.214999971446,"response":"24","stimulus":"<div><span id=\"time9\">00:59</span></div><p>I see <b>a chair</b> in this photo of a scene.</p><p>What is the probability that I also see: <br> any other object starting with P or A<p>Your answer is <span id=\"answer-display\"></span></p>","cueword":["a table","a sink","a rug","a lamp","a telephone","a chair"],"secondlet":["C or R","T or E","B or S","W or F","D or L","P or A"],"trial_type":"html-slider-response","trial_index":42,"time_elapsed":244249,"internal_node_id":"0.0-7.0-35.0","subject":"uhreegbac79nzm5","condition":"conditionB","firstlet":["C","T","B","W","D","P"],"controlword":["table is brown","sink is white","rug is red","lamp is silver","telephone is black","chair is brown"],"subword":["chair<br>computer<br>curtain","table<br>towel<br>toilet","book<br>bouquet<br>bed","window<br>wardrobe<br>wine rack","display case<br>dresser<br>desk","painting<br>plant<br>printer"]},{"rt":null,"stimulus":"<p>I see <b>a rug</b> in this photo of a scene.</p><br>","button_pressed":null,"trial_type":"html-button-response","trial_index":43,"time_elapsed":247751,"internal_node_id":"0.0-7.0-36.0","subject":"uhreegbac79nzm5","condition":"conditionB","firstlet":["C","T","B","W","D","P"],"secondlet":["C or R","T or E","B or S","W or F","D or L","P or A"],"cueword":["a table","a sink","a rug","a lamp","a telephone","a chair"],"controlword":["table is brown","sink is white","rug is red","lamp is silver","telephone is black","chair is brown"],"subword":["chair<br>computer<br>curtain","table<br>towel<br>toilet","book<br>bouquet<br>bed","window<br>wardrobe<br>wine rack","display case<br>dresser<br>desk","painting<br>plant<br>printer"]},{"rt":10461.324999982025,"response":"22","stimulus":"<div><span id=\"time10\">00:59</span></div><p>I see <b>a rug</b> in this photo of a scene.</p><p>What is the probability that I also see: <br> any other object starting with B or S<p>Your answer is <span id=\"answer-display\"></span></p>","cueword":["a table","a sink","a rug","a lamp","a telephone","a chair"],"secondlet":["C or R","T or E","B or S","W or F","D or L","P or A"],"trial_type":"html-slider-response","trial_index":44,"time_elapsed":258215,"internal_node_id":"0.0-7.0-37.0","subject":"uhreegbac79nzm5","condition":"conditionB","firstlet":["C","T","B","W","D","P"],"controlword":["table is brown","sink is white","rug is red","lamp is silver","telephone is black","chair is brown"],"subword":["chair<br>computer<br>curtain","table<br>towel<br>toilet","book<br>bouquet<br>bed","window<br>wardrobe<br>wine rack","display case<br>dresser<br>desk","painting<br>plant<br>printer"]},{"rt":null,"stimulus":"<p>I see <b>a lamp</b> in this photo of a scene.</p><br>","button_pressed":null,"trial_type":"html-button-response","trial_index":45,"time_elapsed":261716,"internal_node_id":"0.0-7.0-38.0","subject":"uhreegbac79nzm5","condition":"conditionB","firstlet":["C","T","B","W","D","P"],"secondlet":["C or R","T or E","B or S","W or F","D or L","P or A"],"cueword":["a table","a sink","a rug","a lamp","a telephone","a chair"],"controlword":["table is brown","sink is white","rug is red","lamp is silver","telephone is black","chair is brown"],"subword":["chair<br>computer<br>curtain","table<br>towel<br>toilet","book<br>bouquet<br>bed","window<br>wardrobe<br>wine rack","display case<br>dresser<br>desk","painting<br>plant<br>printer"]},{"rt":3421.2699999916367,"response":"70","stimulus":"<div><span id=\"time11\">00:59</span></div><p>I see <b>a lamp</b> in this photo of a scene.</p><p>What is the probability that I also see: <br> any other object starting with W or F<p>Your answer is <span id=\"answer-display\"></span></p>","cueword":["a table","a sink","a rug","a lamp","a telephone","a chair"],"secondlet":["C or R","T or E","B or S","W or F","D or L","P or A"],"trial_type":"html-slider-response","trial_index":46,"time_elapsed":265140,"internal_node_id":"0.0-7.0-39.0","subject":"uhreegbac79nzm5","condition":"conditionB","firstlet":["C","T","B","W","D","P"],"controlword":["table is brown","sink is white","rug is red","lamp is silver","telephone is black","chair is brown"],"subword":["chair<br>computer<br>curtain","table<br>towel<br>toilet","book<br>bouquet<br>bed","window<br>wardrobe<br>wine rack","display case<br>dresser<br>desk","painting<br>plant<br>printer"]},{"rt":1591.0450000083074,"responses":"{\"Q0\":\"\"}","trial_type":"survey-text","trial_index":47,"time_elapsed":266741,"internal_node_id":"0.0-8.0","subject":"uhreegbac79nzm5","condition":"conditionB","firstlet":["C","T","B","W","D","P"],"secondlet":["C or R","T or E","B or S","W or F","D or L","P or A"],"cueword":["a table","a sink","a rug","a lamp","a telephone","a chair"],"controlword":["table is brown","sink is white","rug is red","lamp is silver","telephone is black","chair is brown"],"subword":["chair<br>computer<br>curtain","table<br>towel<br>toilet","book<br>bouquet<br>bed","window<br>wardrobe<br>wine rack","display case<br>dresser<br>desk","painting<br>plant<br>printer"]}],"__v":0}
